"participant","lexicality","block","environment","order","trial","spelling","button","response","accuracy","previous.accuracy","rt","previous.rt","microsec.error","unix.seconds","unix.microseconds","trial.day","trial.session","order.in.block","order.in.subblock","rt.raw","coltheart.N","OLD20","nletters","nsyl","morphology","flection","synclass","celex.frequency","celex.frequency.lemma","celex.inflectional.entropy","lemma.size","nlemmas","bnc.frequency","bnc.frequency.million","subtlex.frequency","subtlex.frequency.million","subtlex.cd","subtlex.cd.pct","summed.monogram","summed.bigram","summed.trigram","lett.odd","part3"
1,"N",10,"M",4879,20994,"scraved",2,"N",1,1,722,813,10,1257337028,421625,179,179,379,79,722,1,1.9,7,NA,NA,NA,NA,0,0,NA,NA,NA,0,0,0,0,0,0,697802,45317,9120,19,"1"
1,"N",11,"GC3",5307,3036,"buhf",2,"N",1,1,583,652,143,1257349288,874875,607,107,307,7,583,3,1.85,4,NA,NA,NA,NA,0,0,NA,NA,NA,0,0,0,0,0,0,434615,7947,749,2,"1"
1,"N",12,"GC3",5734,16450,"oze",2,"N",1,1,613,566,248,1257350237,765875,1034,534,234,34,613,4,1.65,3,NA,NA,NA,NA,0,0,NA,NA,NA,0,0,0,0,0,0,501740,11517,371,15,"1"
1,"N",12,"GC3",5912,11318,"hannades",2,"N",1,1,619,889,156,1257350554,421875,1212,712,412,12,619,0,3,8,NA,NA,NA,NA,0,0,NA,NA,NA,0,0,0,0,0,0,793762,66633,11121,8,"1"
1,"N",13,"GC3",6400,25760,"tesples",2,"N",1,0,588,540,163,1257416287,250375,200,200,400,100,588,1,2.2,7,NA,NA,NA,NA,0,0,NA,NA,NA,0,0,0,0,0,0,788610,82010,11931,20,"1"
1,"N",13,"GC3",6342,14892,"moads",2,"N",1,1,541,524,10,1257416194,359375,142,142,342,42,541,8,1.5,5,NA,NA,NA,NA,0,0,NA,NA,NA,0,0,0,0,0,0,588862,37646,2428,13,"1"
1,"N",14,"GC3",6983,21952,"pito",2,"N",1,1,569,637,155,1257432871,344375,783,283,483,83,569,3,1.7,4,NA,NA,NA,NA,0,0,NA,NA,NA,2,0.02,0,0,0,0,555790,20437,2008,16,"1"
1,"N",14,"GC3",6725,27636,"washace",2,"N",1,1,487,551,180,1257432443,109375,525,25,225,25,487,0,2.9,7,NA,NA,NA,NA,0,0,NA,NA,NA,0,0,0,0,0,0,689790,29618,3113,23,"1"
1,"N",14,"GC3",6786,4850,"commise",2,"N",1,0,591,460,11,1257432537,813375,586,86,286,86,591,0,2.25,7,NA,NA,NA,NA,0,0,NA,NA,NA,0,0,0,0,0,0,701351,39429,6787,3,"1"
1,"N",16,"M",7959,6366,"defraged",2,"N",1,1,585,520,11,1258647955,734000,259,259,459,59,585,1,2.35,8,NA,NA,NA,NA,0,0,NA,NA,NA,0,0,0,0,0,0,748411,43308,10256,4,"1"
1,"N",16,"M",7737,17364,"persames",2,"N",1,1,700,607,10,1258647582,656000,37,37,237,37,700,0,2.85,8,NA,NA,NA,NA,0,0,NA,NA,NA,0,0,0,0,0,0,826847,79724,14249,16,"1"
1,"N",16,"M",7823,26270,"trefeld",2,"N",1,1,570,537,183,1258647729,218000,123,123,323,23,570,0,2.95,7,NA,NA,NA,NA,0,0,NA,NA,NA,0,0,0,0,0,0,728679,33542,2479,20,"1"
1,"N",17,"M",8209,17374,"sankier",2,"N",1,1,588,555,181,1259166965,421750,9,509,209,9,588,3,1.8,7,NA,NA,NA,NA,0,0,NA,NA,NA,0,0,0,0,0,0,757459,46702,6520,19,"1"
1,"N",17,"M",8605,11748,"heccep",2,"N",1,1,496,510,11,1259167648,187750,405,905,105,5,496,0,2.8,6,NA,NA,NA,NA,0,0,NA,NA,NA,0,0,0,0,0,0,638404,17182,980,8,"1"
1,"N",17,"M",8530,13974,"lifetan",2,"N",1,1,505,486,11,1259167517,562750,330,830,30,30,505,0,2.85,7,NA,NA,NA,NA,0,0,NA,NA,NA,0,0,0,0,0,0,734019,33533,2715,12,"1"
1,"N",18,"M",8783,6544,"destramed",2,"N",1,1,652,523,164,1259226305,375500,83,83,283,83,652,0,2.95,9,NA,NA,NA,NA,0,0,NA,NA,NA,0,0,0,0,0,0,851917,69892,14609,4,"1"
1,"N",18,"M",9003,19646,"renosed",2,"N",1,1,478,475,197,1259226686,953500,303,303,3,3,478,1,1.95,7,NA,NA,NA,NA,0,0,NA,NA,NA,0,0,0,0,0,0,797713,50221,10942,18,"1"
1,"N",18,"M",8962,1272,"lidg",2,"N",1,1,513,678,10,1259226610,640500,262,262,462,62,513,3,1.8,4,NA,NA,NA,NA,0,0,NA,NA,NA,0,0,0,0,0,0,519593,18555,970,12,"1"
1,"N",18,"M",9074,12072,"housefloe",2,"N",1,1,591,492,167,1259226802,453500,374,374,74,74,591,0,3.35,9,NA,NA,NA,NA,0,0,NA,NA,NA,0,0,0,0,0,0,808518,35266,3609,8,"1"
1,"N",18,"M",9182,12976,"voggler",2,"N",1,1,583,651,188,1259226993,515500,482,482,182,82,583,0,2.05,7,NA,NA,NA,NA,0,0,NA,NA,NA,0,0,0,0,0,0,652464,32259,5290,22,"1"
1,"N",19,"GC4",9526,20962,"whow",2,"N",1,1,806,501,243,1259247336,140375,826,326,26,26,806,6,1.55,4,NA,NA,NA,NA,0,0,NA,NA,NA,1,0.01,1,0.0196,1,1e-04,449330,8979,780,23,"1"
1,"N",19,"GC4",9454,22352,"slike",2,"N",1,1,505,470,161,1259247210,890375,754,254,454,54,505,6,1.65,5,NA,NA,NA,NA,0,0,NA,NA,NA,0,0,0,0,0,0,627307,29124,1115,19,"1"
1,"N",19,"GC4",9298,12248,"hirl",2,"N",1,1,573,524,10,1259246945,734375,598,98,298,98,573,4,1.75,4,NA,NA,NA,NA,0,0,NA,NA,NA,0,0,0,0,0,0,537702,10775,657,8,"1"
1,"N",2,"M",1122,6582,"beril",2,"N",1,1,771,664,11,1255528032,827875,422,422,122,22,771,2,1.9,5,NA,NA,NA,NA,0,0,NA,NA,NA,0,0,0,0,0,0,621440,34869,2888,2,"1"
1,"N",2,"M",1002,9146,"brited",2,"N",1,1,620,689,192,1255527813,905875,302,302,2,2,620,2,1.9,6,NA,NA,NA,NA,0,0,NA,NA,NA,0,0,0,0,0,0,667534,47439,10792,2,"1"
1,"N",21,"GC2",10388,28380,"werm",2,"N",1,1,770,779,10,1259313834,891250,188,188,388,88,770,7,1.65,4,NA,NA,NA,NA,0,0,NA,NA,NA,0,0,0,0,0,0,530043,21024,1195,23,"1"
1,"N",22,"GC4",10983,5658,"crills",2,"N",1,1,470,500,158,1259341054,343375,783,283,483,83,470,6,1.65,6,NA,NA,NA,NA,0,0,NA,NA,NA,0,0,0,0,0,0,657610,53252,3653,3,"1"
1,"N",22,"GC4",11023,21722,"chirties",2,"N",1,1,543,543,219,1259341130,359375,823,323,23,23,543,1,2.25,8,NA,NA,NA,NA,0,0,NA,NA,NA,0,0,0,0,0,0,803319,75461,13311,3,"1"
1,"N",22,"GC4",11094,9160,"flysleil",2,"N",1,1,506,471,164,1259341243,171375,894,394,94,94,506,0,3.8,8,NA,NA,NA,NA,0,0,NA,NA,NA,0,0,0,0,0,0,724242,24731,1266,6,"1"
1,"N",22,"GC4",11147,6306,"detreres",2,"N",1,1,549,549,177,1259341334,468375,947,447,147,47,549,0,2.85,8,NA,NA,NA,NA,0,0,NA,NA,NA,0,0,0,0,0,0,885730,93973,13586,4,"1"
1,"N",22,"GC4",11080,27346,"jeting",2,"N",1,1,583,518,10,1259341220,952375,880,380,80,80,583,0,1.9,6,NA,NA,NA,NA,0,0,NA,NA,NA,0,0,0,0,0,0,648214,53808,20745,10,"1"
1,"N",23,"GC4",11364,4470,"clurler",2,"N",1,1,545,545,10,1259832125,999875,164,164,364,64,545,0,2.4,7,NA,NA,NA,NA,0,0,NA,NA,NA,0,0,0,0,0,0,695851,42758,5730,3,"1"
1,"N",23,"GC4",11550,28188,"wimp",1,"W",0,1,NA,667,202,1259832444,46875,350,350,50,50,549,3,1.8,4,NA,NA,NA,NA,0,0,NA,NA,NA,82,0.82,143,2.8039,122,0.0145,476277,9931,1061,23,"1"
1,"N",25,"M",12405,2600,"briy",2,"N",1,1,520,586,170,1259946063,437375,705,205,405,5,520,3,1.8,4,NA,NA,NA,NA,0,0,NA,NA,NA,0,0,0,0,0,0,505854,21096,1229,2,"1"
1,"N",25,"M",12479,13492,"larse",2,"N",1,1,587,473,170,1259946180,812375,779,279,479,79,587,3,1.8,5,NA,NA,NA,NA,0,0,NA,NA,NA,0,0,0,0,0,0,667861,32886,2638,12,"1"
1,"N",25,"M",12525,23364,"thrats",2,"N",1,1,504,586,11,1259946287,922375,825,325,25,25,504,0,1.9,6,NA,NA,NA,NA,0,0,NA,NA,NA,0,0,0,0,0,0,669050,54692,5602,20,"1"
1,"N",25,"M",12576,20478,"rittle",2,"N",1,1,467,513,213,1259946370,234375,876,376,76,76,467,3,1.8,6,NA,NA,NA,NA,0,0,NA,NA,NA,0,0,11,0.2157,1,1e-04,715841,35562,3428,18,"1"
1,"N",26,"M",13111,6736,"desky",2,"N",1,1,681,620,11,1260353522,624500,411,411,111,11,681,3,1.8,5,NA,NA,NA,NA,0,0,NA,NA,NA,0,0,0,0,0,0,565733,34012,2632,4,"1"
1,"N",27,"M",13229,12312,"irtfacts",2,"N",1,1,682,571,10,1264005868,31500,29,29,229,29,682,0,2.95,8,NA,NA,NA,NA,0,0,NA,NA,NA,0,0,0,0,0,0,759280,44267,4167,9,"1"
1,"N",27,"M",13628,8758,"filemess",2,"N",1,0,718,625,173,1264006558,453500,428,428,128,28,718,0,2.9,8,NA,NA,NA,NA,0,0,NA,NA,NA,0,0,0,0,0,0,807009,68500,6725,6,"1"
1,"N",27,"M",13384,27490,"wawns",2,"N",1,1,602,571,171,1264006135,531500,184,184,384,84,602,7,1.65,5,NA,NA,NA,NA,0,0,NA,NA,NA,0,0,0,0,0,0,559918,37811,3547,23,"1"
1,"N",27,"M",13681,22042,"moxpence",2,"N",1,1,520,553,179,1264006645,734500,481,481,181,81,520,0,3.5,8,NA,NA,NA,NA,0,0,NA,NA,NA,0,0,0,0,0,0,719513,32901,4335,13,"1"
1,"N",27,"M",13316,27436,"waice",2,"N",1,1,593,562,167,1264006021,515500,116,116,316,16,593,1,1.95,5,NA,NA,NA,NA,0,0,NA,NA,NA,0,0,0,0,0,0,609181,23255,2309,23,"1"
1,"N",27,"M",13360,7916,"entei",2,"N",1,1,540,573,11,1264006095,890500,160,160,360,60,540,1,1.95,5,NA,NA,NA,NA,0,0,NA,NA,NA,0,0,0,0,0,0,709315,27873,4387,5,"1"
1,"N",29,"M",14439,14178,"leotered",2,"N",1,1,649,653,167,1264671374,468875,239,239,439,39,649,1,2.1,8,NA,NA,NA,NA,0,0,NA,NA,NA,0,0,0,0,0,0,855611,66275,12600,12,"1"
1,"N",29,"M",14255,628,"arayed",2,"N",1,1,572,606,11,1264671042,327875,55,55,255,55,572,3,1.75,6,NA,NA,NA,NA,0,0,NA,NA,NA,0,0,0,0,0,0,661355,38654,7717,1,"1"
1,"N",3,"GC4",1632,9882,"walloes",2,"N",1,1,895,593,68,1256202936,734750,432,432,132,32,895,2,1.9,7,NA,NA,NA,NA,0,0,NA,NA,NA,0,0,0,0,0,0,714944,61081,11134,23,"1"
1,"N",3,"GC4",1550,15868,"tertier",2,"N",1,1,727,752,11,1256202782,15750,350,350,50,50,727,2,1.9,7,NA,NA,NA,NA,0,0,NA,NA,NA,0,0,0,0,0,0,818599,65874,10063,20,"1"
1,"N",30,"M",14935,19802,"resongs",2,"N",1,1,622,775,11,1264757182,968375,235,235,435,35,622,0,2.45,7,NA,NA,NA,NA,0,0,NA,NA,NA,0,0,0,0,0,0,771949,81053,6444,18,"1"
1,"N",30,"M",14889,17730,"satches",2,"N",1,1,572,591,259,1264757094,812375,189,189,389,89,572,9,1.4,7,NA,NA,NA,NA,0,0,NA,NA,NA,0,0,0,0,0,0,744960,71879,11496,19,"1"
1,"N",31,"M",15607,23572,"stawled",2,"N",1,1,665,620,10,1265017335,187250,407,407,107,7,665,3,1.8,7,NA,NA,NA,NA,0,0,NA,NA,NA,0,0,0,0,0,0,707813,51079,10612,19,"1"
1,"N",31,"M",15413,19544,"rethan",2,"N",1,1,576,577,172,1265017002,156250,213,213,413,13,576,0,2.55,6,NA,NA,NA,NA,0,0,NA,NA,NA,0,0,0,0,0,0,690008,38513,4922,18,"1"
1,"N",32,"GC1",15979,4364,"clothmate",2,"N",1,1,740,498,149,1265133101,375250,279,279,479,79,740,0,3.8,9,NA,NA,NA,NA,0,0,NA,NA,NA,0,0,0,0,0,0,776443,50147,6370,3,"1"
1,"N",33,"GC4",16255,11254,"handship",2,"N",1,1,682,571,10,1265362131,796875,55,55,255,55,682,1,2.7,8,NA,NA,NA,NA,0,0,NA,NA,NA,0,0,0,0,0,0,699555,28801,4579,8,"1"
1,"N",33,"GC4",16484,19218,"rugy",2,"N",1,1,652,491,162,1265362509,218875,284,284,484,84,652,2,1.8,4,NA,NA,NA,NA,0,0,NA,NA,NA,0,0,0,0,0,0,478923,15010,634,18,"1"
1,"N",33,"GC4",16487,8744,"guc",2,"N",1,1,472,587,10,1265362513,858875,287,287,487,87,472,5,1.75,3,NA,NA,NA,NA,0,0,NA,NA,NA,0,0,0,0,0,0,442528,5503,283,7,"1"
1,"N",34,"M",16801,4660,"cobhub",2,"N",1,1,629,666,11,1265737814,359125,101,101,301,1,629,0,2.9,6,NA,NA,NA,NA,0,0,NA,NA,NA,0,0,0,0,0,0,520285,16683,3668,3,"1"
1,"N",34,"M",17038,14176,"lolts",2,"N",1,1,592,611,11,1265738214,812125,338,338,38,38,592,11,1.4,5,NA,NA,NA,NA,0,0,NA,NA,NA,0,0,0,0,0,0,614784,40619,3841,12,"1"
1,"N",35,"GC1",17484,21782,"threeking",2,"N",1,1,630,667,171,1265793364,594375,284,284,484,84,630,0,2.65,9,NA,NA,NA,NA,0,0,NA,NA,NA,0,0,0,0,0,0,817173,61898,20617,20,"1"
1,"N",36,"M",18028,1858,"blales",2,"N",1,1,542,575,180,1265880619,46875,328,328,28,28,542,4,1.75,6,NA,NA,NA,NA,0,0,NA,NA,NA,0,0,0,0,0,0,667752,68287,10659,2,"1"
1,"N",36,"M",18127,9480,"whank",2,"N",1,1,564,531,11,1265880787,686875,427,427,127,27,564,4,1.7,5,NA,NA,NA,NA,0,0,NA,NA,NA,0,0,0,0,0,0,510227,15583,1562,23,"1"
1,"N",36,"M",17988,6730,"dild",2,"N",1,1,501,482,176,1265880547,686875,288,288,488,88,501,5,1.65,4,NA,NA,NA,NA,0,0,NA,NA,NA,0,0,0,0,0,0,525943,22384,2037,4,"1"
1,"N",37,"GC2",18611,4566,"clawn",2,"N",1,1,555,523,148,1266485208,922000,411,411,111,11,555,2,1.75,5,NA,NA,NA,NA,0,0,NA,NA,NA,0,0,0,0,0,0,553577,23387,1857,3,"1"
1,"N",38,"GC4",19022,9284,"harded",2,"N",1,1,693,483,11,1266947413,796375,322,322,22,22,693,8,1.5,6,NA,NA,NA,NA,0,0,NA,NA,NA,0,0,0,0,0,0,641352,39403,9995,8,"1"
1,"N",39,"GC4",19413,1064,"bassed",1,"W",0,1,NA,523,234,1266948078,828375,713,713,413,13,588,10,1.45,6,NA,NA,NA,NA,0,0,NA,NA,NA,0,0,0,0,0,0,686937,39441,9776,2,"1"
1,"N",4,"GC3",1741,26144,"trarge",2,"N",1,1,699,755,11,1256287447,328125,41,41,241,41,699,0,2.15,6,NA,NA,NA,NA,0,0,NA,NA,NA,0,0,0,0,0,0,695061,34122,3342,20,"1"
1,"N",4,"GC3",2165,14420,"lurned",2,"N",1,1,978,646,10,1256288220,500125,465,465,165,65,978,3,1.8,6,NA,NA,NA,NA,0,0,NA,NA,NA,0,0,0,0,0,0,657242,33081,8143,12,"1"
1,"N",4,"GC3",2183,2494,"brape",2,"N",1,1,778,654,146,1256288251,313125,483,483,183,83,778,7,1.55,5,NA,NA,NA,NA,0,0,NA,NA,NA,0,0,0,0,0,0,599529,27462,2126,2,"1"
1,"N",4,"GC3",2091,9656,"frircy",2,"N",1,1,622,675,146,1256288086,735125,391,391,91,91,622,0,2.7,6,NA,NA,NA,NA,0,0,NA,NA,NA,0,0,0,0,0,0,590489,22547,1115,6,"1"
1,"N",40,"GC2",19969,27122,"veened",1,"W",0,1,NA,511,10,1267090565,109500,269,269,469,69,655,3,1.85,6,NA,NA,NA,NA,0,0,NA,NA,NA,0,0,0,0,0,0,716341,40385,8645,22,"1"
1,"N",40,"GC2",19866,19332,"ranned",2,"N",1,1,577,496,11,1267090391,15500,166,166,366,66,577,10,1.5,6,NA,NA,NA,NA,0,0,NA,NA,NA,0,0,0,0,0,0,703924,44200,9584,18,"1"
1,"N",41,"GC3",20478,28110,"wiced",2,"N",1,1,521,703,11,1267117774,109125,778,278,478,78,521,3,1.7,5,NA,NA,NA,NA,0,0,NA,NA,NA,0,0,0,0,0,0,582081,31132,7969,23,"1"
1,"N",41,"GC3",20313,4914,"conceeled",2,"N",1,1,557,608,164,1267117509,375125,613,113,313,13,557,1,2.5,9,NA,NA,NA,NA,0,0,NA,NA,NA,0,0,0,0,0,0,863407,62601,14958,3,"1"
1,"N",42,"M",21164,19808,"replont",2,"N",1,1,564,714,186,1267177182,953125,464,464,164,64,564,0,2.6,7,NA,NA,NA,NA,0,0,NA,NA,NA,0,0,0,0,0,0,730344,44211,5343,18,"1"
1,"N",43,"GC3",21457,25344,"thut",2,"N",1,1,584,603,10,1267552602,890000,257,257,457,57,584,8,1.5,4,NA,NA,NA,NA,0,0,NA,NA,NA,0,0,1,0.0196,1,1e-04,515351,19064,2303,20,"1"
1,"N",43,"GC3",21469,25104,"toardings",2,"N",1,1,537,569,11,1267552622,187000,269,269,469,69,537,1,2.8,9,NA,NA,NA,NA,0,0,NA,NA,NA,0,0,0,0,0,0,825767,82836,15376,20,"1"
1,"N",44,"GC4",21781,23226,"spigs",2,"N",1,1,590,543,11,1267780900,187625,81,81,281,81,590,5,1.65,5,NA,NA,NA,NA,0,0,NA,NA,NA,0,0,0,0,0,0,608575,44315,2031,19,"1"
1,"N",45,"M",22259,12000,"hoat",2,"N",1,1,565,515,10,1268040269,172125,59,59,259,59,565,9,1.4,4,NA,NA,NA,NA,0,0,NA,NA,NA,0,0,0,0,0,0,544064,23083,1594,8,"1"
1,"N",45,"M",22697,15538,"mith",2,"N",1,0,557,724,171,1268041013,984125,497,497,197,97,557,7,1.5,4,NA,NA,NA,NA,0,0,NA,NA,NA,0,0,1,0.0196,1,1e-04,516406,17228,2548,13,"1"
1,"N",45,"M",22443,4476,"shinch",2,"N",1,1,547,614,177,1268040588,937125,243,243,443,43,547,0,2,6,NA,NA,NA,NA,0,0,NA,NA,NA,0,0,0,0,0,0,616345,45032,3704,19,"1"
1,"N",45,"M",22577,18164,"piming",2,"N",1,1,582,517,72,1268040813,390125,377,377,77,77,582,8,1.5,6,NA,NA,NA,NA,0,0,NA,NA,NA,0,0,0,0,0,0,612992,54143,19631,16,"1"
1,"N",45,"M",22406,5508,"crards",2,"N",1,1,586,637,172,1268040527,156125,206,206,406,6,586,1,1.9,6,NA,NA,NA,NA,0,0,NA,NA,NA,0,0,0,0,0,0,657991,54065,3809,3,"1"
1,"N",45,"M",22557,1106,"benbers",2,"N",1,1,564,532,11,1268040781,15125,357,357,57,57,564,0,2,7,NA,NA,NA,NA,0,0,NA,NA,NA,0,0,0,0,0,0,743759,63779,7871,2,"1"
1,"N",46,"M",22804,27198,"votch",2,"N",1,1,558,542,11,1268156582,687250,104,104,304,4,558,3,1.85,5,NA,NA,NA,NA,0,0,NA,NA,NA,0,0,0,0,0,0,524367,10361,1227,22,"1"
1,"N",47,"M",23455,14272,"dyr",2,"N",1,1,511,526,172,1268157708,281250,755,755,455,55,511,1,1.9,3,NA,NA,NA,NA,0,0,NA,NA,NA,0,0,0,0,0,0,457217,11348,47,4,"1"
1,"N",47,"M",23396,24576,"driggered",2,"N",1,1,557,475,11,1268157607,156250,696,696,396,96,557,1,2.8,9,NA,NA,NA,NA,0,0,NA,NA,NA,0,0,0,0,0,0,821353,62421,10705,4,"1"
1,"N",47,"M",23439,7920,"enbayed",2,"N",1,1,539,589,10,1268157682,687250,739,739,439,39,539,0,2.7,7,NA,NA,NA,NA,0,0,NA,NA,NA,0,0,0,0,0,0,706590,34109,7634,5,"1"
1,"N",47,"M",23243,17186,"beq",2,"N",1,1,566,583,271,1268157348,500250,543,543,243,43,566,6,1.65,3,NA,NA,NA,NA,0,0,NA,NA,NA,0,0,0,0,0,0,462650,7970,920,2,"1"
1,"N",48,"GC4",23985,19648,"redote",2,"N",1,1,559,575,149,1268301320,609250,285,285,485,85,559,2,1.9,6,NA,NA,NA,NA,0,0,NA,NA,NA,0,0,0,0,0,0,728211,47239,5431,18,"1"
1,"N",48,"GC4",23858,25490,"threedens",2,"N",1,1,543,542,189,1268301113,156250,158,158,358,58,543,0,3.1,9,NA,NA,NA,NA,0,0,NA,NA,NA,0,0,0,0,0,0,905610,75904,6054,20,"1"
1,"N",49,"GC4",24652,9184,"mogged",1,"W",0,1,NA,593,11,1268385738,92875,452,452,152,52,510,6,1.7,6,NA,NA,NA,NA,0,0,NA,NA,NA,0,0,0,0,0,0,599759,29837,8267,13,"1"
1,"N",49,"GC4",24602,8774,"fint",2,"N",1,1,636,907,11,1268385656,171875,402,402,102,2,636,13,1.1,4,NA,NA,NA,NA,0,0,NA,NA,NA,0,0,0,0,0,0,548236,39006,3535,6,"1"
1,"N",49,"GC4",24392,2242,"bune",2,"N",1,1,585,620,11,1268385289,717875,192,192,392,92,585,10,1.45,4,NA,NA,NA,NA,0,0,NA,NA,NA,0,0,0,0,0,0,545794,24411,1597,2,"1"
1,"N",5,"GC3",2648,18740,"priciedge",2,"N",1,1,956,658,11,1256289169,828125,948,948,148,48,956,0,3.65,9,NA,NA,NA,NA,0,0,NA,NA,NA,0,0,0,0,0,0,829576,50519,4889,16,"1"
1,"N",50,"GC4",24844,3998,"cheared",2,"N",1,1,521,503,87,1268645628,375375,144,644,344,44,521,4,1.8,7,NA,NA,NA,NA,0,0,NA,NA,NA,0,0,0,0,0,0,728274,56808,11829,3,"1"
1,"N",51,"GC4",25586,8438,"titted",2,"N",1,1,611,515,10,1268761786,953500,386,386,86,86,611,8,1.55,6,NA,NA,NA,NA,0,0,NA,NA,NA,2,0.02,0,0,0,0,706521,50113,10447,20,"1"
1,"N",51,"GC4",25675,19308,"rampoll",2,"N",1,1,521,503,11,1268761935,218500,475,475,175,75,521,0,3,7,NA,NA,NA,NA,0,0,NA,NA,NA,0,0,0,0,0,0,649468,27992,2792,18,"1"
1,"N",51,"GC4",25315,25428,"smink",2,"N",1,1,543,627,158,1268761342,812500,115,115,315,15,543,3,1.75,5,NA,NA,NA,NA,0,0,NA,NA,NA,0,0,0,0,0,0,575597,36513,1735,19,"1"
1,"N",52,"GC4",26055,2240,"doshing",1,"W",0,1,NA,597,10,1268904641,765375,355,355,55,55,594,5,1.7,7,NA,NA,NA,NA,0,0,NA,NA,NA,0,0,0,0,0,0,676042,55116,19983,4,"1"
1,"N",53,"M",26358,6046,"dars",2,"N",1,1,676,565,185,1268930337,718875,658,158,358,58,676,19,1,4,NA,NA,NA,NA,0,0,NA,NA,NA,0,0,0,0,0,0,571744,45070,4059,4,"1"
1,"N",54,"M",27046,9856,"garked",2,"N",1,1,480,477,11,1268931488,953875,1346,846,46,46,480,7,1.65,6,NA,NA,NA,NA,0,0,NA,NA,NA,0,0,0,0,0,0,624691,33635,8422,7,"1"
1,"N",54,"M",26890,7176,"plubly",2,"N",1,1,503,535,274,1268931225,953875,1190,690,390,90,503,0,2.55,6,NA,NA,NA,NA,0,0,NA,NA,NA,0,0,0,0,0,0,518286,25298,4772,16,"1"
1,"N",54,"M",26971,8832,"flar",2,"N",1,1,543,476,166,1268931361,781875,1271,771,471,71,543,9,1.4,4,NA,NA,NA,NA,0,0,NA,NA,NA,0,0,0,0,0,0,526196,22816,1767,6,"1"
1,"N",55,"M",27697,23564,"tragnact",2,"N",1,1,485,517,182,1268990076,937750,497,497,197,97,485,0,3.35,8,NA,NA,NA,NA,0,0,NA,NA,NA,0,0,0,0,0,0,752713,32263,3629,20,"1"
1,"N",55,"M",27409,21614,"chaning",2,"N",1,1,487,468,11,1268989612,109750,209,209,409,9,487,4,1.55,7,NA,NA,NA,NA,0,0,NA,NA,NA,0,0,0,0,0,0,669175,65502,21524,3,"1"
1,"N",55,"M",27218,7882,"enfelle",2,"N",1,1,473,803,11,1268989292,687750,18,18,218,18,473,0,2.95,7,NA,NA,NA,NA,0,0,NA,NA,NA,0,0,0,0,0,0,770926,36983,3963,5,"1"
1,"N",55,"M",27423,19386,"rangnit",2,"N",1,1,492,573,200,1268989634,125750,223,223,423,23,492,0,2.95,7,NA,NA,NA,NA,0,0,NA,NA,NA,0,0,0,0,0,0,729684,47105,2941,18,"1"
1,"N",55,"M",27266,2276,"beapish",2,"N",1,1,600,503,11,1268989369,515750,66,66,266,66,600,1,2.8,7,NA,NA,NA,NA,0,0,NA,NA,NA,0,0,0,0,0,0,695627,26905,2787,2,"1"
1,"N",55,"M",27519,11784,"heke",2,"N",1,1,472,602,181,1268989790,703750,319,319,19,19,472,4,1.8,4,NA,NA,NA,NA,0,0,NA,NA,NA,0,0,0,0,0,0,560961,18154,857,8,"1"
1,"N",56,"GC4",28175,22518,"thukers",2,"N",1,1,496,610,159,1269250037,156750,475,475,175,75,496,0,2.25,7,NA,NA,NA,NA,0,0,NA,NA,NA,0,0,0,0,0,0,679856,56916,7520,20,"1"
1,"N",56,"GC4",27743,12750,"junglins",2,"N",1,1,634,639,86,1269249321,718750,43,43,243,43,634,0,2.65,8,NA,NA,NA,NA,0,0,NA,NA,NA,0,0,0,0,0,0,698428,75938,6148,10,"1"
1,"N",57,"GC4",28207,25018,"larat",2,"N",1,1,770,529,10,1269277679,687750,507,7,207,7,770,1,1.9,5,NA,NA,NA,NA,0,0,NA,NA,NA,0,0,0,0,0,0,625753,37677,3335,12,"1"
1,"N",57,"GC4",28519,25164,"tuds",2,"N",1,1,538,521,11,1269278212,593750,819,319,19,19,538,11,1.3,4,NA,NA,NA,NA,0,0,NA,NA,NA,0,0,0,0,0,0,540842,35077,1601,20,"1"
1,"N",57,"GC4",28372,27234,"veed",2,"N",1,1,537,504,165,1269277971,62750,672,172,372,72,537,14,1.25,4,NA,NA,NA,NA,0,0,NA,NA,NA,0,0,0,0,0,0,572586,26811,7279,22,"1"
1,"N",58,"GC4",28838,24780,"swerseman",2,"N",1,1,516,532,11,1269279645,890750,1138,138,338,38,516,0,3.8,9,NA,NA,NA,NA,0,0,NA,NA,NA,0,0,0,0,0,0,868097,56209,6306,19,"1"
1,"N",58,"GC4",28741,12842,"jijod",2,"N",1,1,702,526,164,1269279480,843750,1041,41,241,41,702,0,2.85,5,NA,NA,NA,NA,0,0,NA,NA,NA,0,0,0,0,0,0,510533,10815,202,10,"1"
1,"N",6,"GC3",3063,20054,"rirks",2,"N",1,1,561,745,152,1256661355,859500,363,363,63,63,561,5,1.7,5,NA,NA,NA,NA,0,0,NA,NA,NA,0,0,0,0,0,0,610735,42221,1351,18,"1"
1,"N",6,"GC3",2915,28,"agler",2,"N",1,1,606,892,224,1256661100,421500,215,215,415,15,606,1,1.9,5,NA,NA,NA,NA,0,0,NA,NA,NA,0,0,0,0,0,0,624836,34608,5061,1,"1"
1,"N",7,"M",3667,7252,"swoomers",2,"N",1,1,802,563,173,1257175848,937625,467,467,167,67,802,1,2.4,8,NA,NA,NA,NA,0,0,NA,NA,NA,0,0,0,0,0,0,772409,66853,8161,19,"1"
1,"N",8,"M",3994,27020,"ubuel",2,"N",1,1,517,667,181,1257240936,953125,294,294,494,94,517,0,2.65,5,NA,NA,NA,NA,0,0,NA,NA,NA,0,0,0,0,0,0,557495,10417,329,21,"1"
1,"N",8,"M",3975,28132,"wiregall",2,"N",1,1,660,666,11,1257240905,890125,275,275,475,75,660,0,3.4,8,NA,NA,NA,NA,0,0,NA,NA,NA,0,0,0,0,0,0,738751,31422,3541,23,"1"
1,"N",9,"M",4441,3558,"canpens",2,"N",1,1,577,528,176,1257267284,921125,741,241,441,41,577,0,2,7,NA,NA,NA,NA,0,0,NA,NA,NA,0,0,0,0,0,0,740395,63389,5728,3,"1"
1,"N",9,"M",4279,26166,"trainstessed",2,"N",1,1,630,667,176,1257267006,984125,579,79,279,79,630,0,4.45,12,NA,NA,NA,NA,0,0,NA,NA,NA,0,0,0,0,0,0,1113108,103278,17925,20,"1"
1,"N",9,"M",4534,8514,"feasings",2,"N",1,1,729,537,170,1257267442,953125,834,334,34,34,729,0,2.05,8,NA,NA,NA,NA,0,0,NA,NA,NA,0,0,0,0,0,0,800001,76958,14111,6,"1"
1,"W",1,"M",346,20835,"scatty",1,"W",1,1,731,639,258,1255445985,327375,146,146,346,46,731,1,1.9,6,2,"obscure","positive","Adjective",2,2,-2.85224898312,3,1,24,0.24,0,0,0,0,637372,36469,3257,19,"1"
1,"W",1,"M",396,21475,"shared",1,"W",1,1,640,661,175,1255446071,671375,196,196,396,96,640,13,1.1,6,1,"conversion","past participle.plural past.singular 2p past.singular past 1p.singular past 3p","Verb",850,2137,-6298.03406233,55,1,5125,51.25,525,10.2941,467,0.0557,678027,52584,10124,19,"1"
1,"W",10,"M",4991,27725,"weaving",1,"W",1,1,695,684,249,1257337229,77625,291,291,491,91,695,4,1.75,7,2,"monomorphemic","present participle","Verb",103,311,-590.265649162,22,2,835,8.35,41,0.8039,38,0.0045,667517,50292,19077,23,"1"
1,"W",11,"GC3",5283,11545,"heaps",1,"W",1,1,577,645,178,1257349238,452875,583,83,283,83,577,8,1.55,5,1,"conversion.monomorphemic","plural.positive.singular present 3p","Adverb.Noun.Verb",60,337,-337.298348047,14,3,295,2.95,23,0.451,22,0.0026,615707,41197,2140,8,"1"
1,"W",11,"GC3",5664,23225,"spins",1,"W",1,1,636,622,11,1257349914,499875,964,464,164,64,636,8,1.4,5,1,"conversion.monomorphemic","plural.singular present 3p","Noun.Verb",26,497,-112.342108256,17,2,148,1.48,91,1.7843,83,0.0099,640025,65907,5394,19,"1"
1,"W",12,"GC3",6004,8295,"faggots",1,"W",1,1,627,564,146,1257350714,609875,1304,804,4,4,627,1,2.7,7,2,"monomorphemic","plural","Noun",7,14,-20.1843413509,2,1,49,0.49,63,1.2353,50,0.006,656642,41292,4191,6,"1"
1,"W",12,"GC3",6057,22745,"snowplough",1,"W",1,1,651,639,11,1257350801,718875,1357,857,57,57,651,0,4.6,10,2,"complex","singular","Noun",1,2,-0.877443751082,2,1,5,0.05,0,0,0,0,735046,31615,2193,19,"1"
1,"W",12,"GC3",5927,19693,"release",1,"W",1,1,546,714,11,1257350579,46875,1227,727,427,27,546,0,2.4,7,2,"conversion.obscure","infinitive.plural present.singular.singular 2p present.singular present 1p","Noun.Verb",703,1459,-5366.29189927,46,2,6639,66.39,1521,29.8235,1026,0.1223,842605,47384,5470,18,"1"
1,"W",12,"GC3",6190,5001,"conjoin",1,"W",1,1,611,698,11,1257351028,624875,1490,990,190,90,611,0,2.6,7,2,"obscure","infinitive.plural present.singular 2p present.singular present 1p","Verb",0,7,2,44,1,3,0.03,0,0,0,0,674736,51909,6797,3,"1"
1,"W",13,"GC3",6427,3073,"bunked",1,"W",1,1,547,564,11,1257416337,984375,227,227,427,27,547,9,1.55,6,1,"conversion","past participle.plural past.singular 2p past.singular past 1p.singular past 3p","Verb",5,5,-0.756269380625,55,1,12,0.12,7,0.1373,6,7e-04,585677,32654,8390,2,"1"
1,"W",14,"GC3",7061,16769,"ow",2,"N",0,1,NA,649,11,1257433004,547375,861,361,61,61,549,9,1,2,1,"irrelevant","headword","Interjection",53,53,-303.712577935,1,1,359,3.59,274,5.3725,141,0.0168,421175,4863,214,15,"1"
1,"W",14,"GC3",6996,13809,"letter",1,"W",1,1,492,573,159,1257432892,125375,796,296,496,96,492,6,1.65,6,2,"conversion.may_include_root","infinitive.plural present.singular.singular 2p present.singular present 1p","Noun.Verb",2166,3706,-24001.0361112,46,2,13601,136.01,4140,81.1765,1738,0.2072,738570,45883,9274,12,"1"
1,"W",15,"M",7511,16295,"novas",1,"W",1,1,641,745,10,1258126785,952750,311,311,11,11,641,1,1.9,5,2,"monomorphemic","plural","Noun",21,85,-92.5039646373,3,1,9,0.09,0,0,0,0,602508,35871,1059,14,"1"
1,"W",16,"M",8097,20053,"riffs",1,"W",1,1,678,583,166,1258648189,93000,397,397,97,97,678,5,1.7,5,1,"monomorphemic","plural","Noun",3,5,-5.52642908396,2,1,48,0.48,5,0.098,5,6e-04,574051,41468,995,18,"1"
1,"W",16,"M",8011,14237,"loom",1,"W",1,1,560,645,165,1258648047,218000,311,311,11,11,560,10,1.3,4,1,"monomorphemic","infinitive.plural present.singular.singular 2p present.singular present 1p","Noun.Verb",52,207,-197.037486267,46,2,273,2.73,20,0.3922,14,0.0017,524491,13178,1608,12,"1"
1,"W",17,"M",8540,9855,"gained",1,"W",1,1,541,508,177,1259167534,93750,340,840,40,40,541,2,1.9,6,1,"monomorphemic","past participle.plural past.singular 2p past.singular past 1p.singular past 3p","Verb",575,1567,-3936.22822926,55,1,3696,36.96,264,5.1765,238,0.0284,681703,50926,10486,7,"1"
1,"W",18,"M",8985,6939,"doctored",1,"W",1,1,534,801,162,1259226648,468500,285,285,485,85,534,0,2.7,8,2,"conversion","past participle.plural past.singular 2p past.singular past 1p.singular past 3p","Verb",15,24,-24.5343409508,55,1,53,0.53,25,0.4902,23,0.0027,756180,49599,10381,4,"1"
1,"W",18,"M",9171,6433,"denotes",1,"W",1,0,568,635,179,1259226974,515500,471,471,171,71,568,2,1.85,7,2,"complex","singular present 3p","Verb",19,58,-80.9952487141,11,1,234,2.34,8,0.1569,8,0.001,797138,74405,12107,4,"1"
1,"W",18,"M",8892,17901,"pleats",1,"W",1,1,540,558,11,1259226487,453500,192,192,392,92,540,3,1.75,6,1,"conversion.monomorphemic","plural.singular present 3p","Noun.Verb",11,39,-38.1465723906,13,2,154,1.54,12,0.2353,12,0.0014,691663,60723,5405,16,"1"
1,"W",19,"GC4",9680,22287,"sleighs",1,"W",1,1,565,483,11,1259247591,203375,980,480,180,80,565,0,2.4,7,1,"conversion.monomorphemic","plural.singular present 3p","Noun.Verb",3,13,-4.90544447738,13,2,2,0.02,2,0.0392,2,2e-04,730509,50593,2241,19,"1"
1,"W",19,"GC4",9668,9373,"formats",1,"W",1,1,560,612,154,1259247572,62375,968,468,168,68,560,0,2.45,7,2,"monomorphemic","plural","Noun",5,56,-12.2410413499,2,1,462,4.62,7,0.1373,6,7e-04,681497,55982,6434,6,"1"
1,"W",19,"GC4",9267,13947,"limelight",1,"W",1,1,616,736,10,1259246893,281375,567,67,267,67,616,0,3.4,9,2,"complex","singular","Noun",31,31,-153.780011193,1,1,217,2.17,29,0.5686,27,0.0032,773410,36513,4356,12,"1"
1,"W",19,"GC4",9497,24579,"swallowed",1,"W",1,1,530,612,11,1259247279,406375,797,297,497,97,530,2,2.15,9,2,"monomorphemic","past participle.plural past.singular 2p past.singular past 1p.singular past 3p","Verb",300,594,-1772.18766434,55,1,1338,13.38,332,6.5098,295,0.0352,755471,50285,10449,19,"1"
1,"W",2,"M",1130,18495,"prigs",1,"W",1,1,723,814,10,1255528046,608875,430,430,130,30,723,3,1.65,5,1,"monomorphemic","plural","Noun",3,20,-5.52642908396,2,1,15,0.15,1,0.0196,1,1e-04,596031,47053,3417,16,"1"
1,"W",2,"M",876,6559,"deters",1,"W",1,1,755,780,11,1255527571,577875,176,176,376,76,755,3,1.8,6,2,"may_include_root","singular present 3p","Verb",6,184,-16.087588972,11,1,38,0.38,0,0,0,0,742944,70121,11561,4,"1"
1,"W",20,"GC4",9775,20393,"ruddle",1,"W",1,1,524,589,231,1259251030,328375,1075,75,275,75,524,6,1.6,6,2,"conversion.monomorphemic","infinitive.plural present.singular.singular 2p present.singular present 1p","Noun.Verb",0,0,2.32192809489,45,2,6,0.06,0,0,0,0,632142,24624,2718,18,"1"
1,"W",21,"GC2",10579,12037,"hornbill",1,"W",1,1,584,485,161,1259314173,391250,379,379,79,79,584,0,3.3,8,2,"complex","singular","Noun",2,4,-2.85224898312,2,1,12,0.12,0,0,0,0,702615,24681,2982,8,"1"
1,"W",21,"GC2",10373,8065,"etcher",2,"N",0,1,NA,603,11,1259313810,47250,173,173,373,73,617,2,1.8,6,2,"complex","singular","Noun",1,1,-0.877443751082,2,1,5,0.05,2,0.0392,1,1e-04,693447,35442,6901,5,"1"
1,"W",21,"GC2",10627,19267,"railways",1,"W",1,1,501,583,147,1259314259,563250,427,427,127,27,501,0,2.7,8,2,"complex","plural","Noun",167,616,-1233.13115509,2,1,1879,18.79,9,0.1765,8,0.001,724573,47812,2742,18,"1"
1,"W",21,"GC2",10697,7227,"drawer",1,"W",1,1,546,547,10,1259314372,766250,497,497,197,97,546,1,1.9,6,2,"complex","singular","Noun",272,427,-2199.82480186,2,1,956,9.56,654,12.8235,456,0.0544,655816,35570,5479,4,"1"
1,"W",21,"GC2",10535,24245,"stumbles",1,"W",1,1,538,556,11,1259314101,719250,335,335,35,35,538,2,1.75,8,2,"conversion.monomorphemic","plural.singular present 3p","Noun.Verb",13,368,-43.4543105485,13,2,44,0.44,21,0.4118,21,0.0025,739501,75381,13199,19,"1"
1,"W",22,"GC4",11145,25337,"thanking",1,"W",1,1,484,532,197,1259341331,296375,945,445,145,45,484,1,1.95,8,2,"monomorphemic","present participle","Verb",47,2063,-261.211459437,11,1,228,2.28,149,2.9216,141,0.0168,701781,60173,20557,20,"1"
1,"W",22,"GC4",10939,28533,"yacht",1,"W",1,1,483,447,11,1259340984,890375,739,239,439,39,483,0,2.15,5,1,"conversion.monomorphemic","infinitive.plural present.singular.singular 2p present.singular present 1p","Noun.Verb",83,108,-528.923501288,46,2,1033,10.33,388,7.6078,176,0.021,533486,15416,647,25,"1"
1,"W",22,"GC4",10977,27629,"washing",1,"W",1,1,441,520,165,1259341045,171375,777,277,477,77,441,9,1.5,7,2,"conversion.monomorphemic","present participle.singular","Noun.Verb",626,1801,-5339.20633058,12,2,2651,26.51,414,8.1176,341,0.0407,659161,53832,20626,23,"1"
1,"W",22,"GC4",10750,5895,"cunt",1,"W",1,1,815,544,11,1259340671,890375,550,50,250,50,815,8,1.45,4,1,"monomorphemic","singular","Noun",37,47,-192.924844563,2,1,223,2.23,313,6.1373,165,0.0197,528817,26726,2151,3,"1"
1,"W",22,"GC4",10745,17187,"payer",1,"W",1,1,601,854,11,1259340663,562375,545,45,245,45,601,7,1.5,5,2,"complex","singular","Noun",12,21,-43.4066478329,2,1,133,1.33,7,0.1373,7,8e-04,596066,32391,5686,16,"1"
1,"W",22,"GC4",10846,9173,"focussed",1,"W",1,1,498,710,11,1259340832,156375,646,146,346,46,498,1,2.7,8,2,"conversion","past participle.plural past.singular 2p past.singular past 1p.singular past 3p","Verb",215,403,-1166.80303672,55,1,219,2.19,3,0.0588,3,4e-04,739056,40279,9080,6,"1"
1,"W",22,"GC4",11097,3585,"carts",1,"W",1,1,527,510,168,1259341247,781375,897,397,97,97,527,13,1,5,1,"conversion.monomorphemic","plural.singular present 3p","Noun.Verb",48,242,-268.105882072,13,2,280,2.8,95,1.8627,68,0.0081,626133,52569,6192,3,"1"
1,"W",22,"GC4",10887,4781,"college",1,"W",1,1,482,546,163,1259340895,749375,687,187,387,87,482,1,2.3,7,2,"monomorphemic","singular","Noun",1380,1842,-14394.0331188,2,1,10239,102.39,3918,76.8235,1801,0.2147,722497,41105,6040,3,"1"
1,"W",23,"GC4",11421,16907,"pampers",1,"W",1,1,576,611,11,1259832225,30875,221,221,421,21,576,4,1.7,7,2,"monomorphemic","singular present 3p","Verb",1,40,-0.877443751082,11,1,37,0.37,3,0.0588,3,4e-04,695894,63749,9655,16,"1"
1,"W",23,"GC4",11251,19099,"quibbled",1,"W",1,1,645,499,10,1259831936,640875,51,51,251,51,645,2,2.4,8,2,"conversion","past participle.plural past.singular 2p past.singular past 1p.singular past 3p","Verb",0,18,2.32192809489,55,1,3,0.03,1,0.0196,1,1e-04,641937,32714,9820,17,"1"
1,"W",23,"GC4",11497,3065,"bungler",1,"W",1,1,641,545,169,1259832348,15875,297,297,497,97,641,2,1.75,7,2,"complex","singular","Noun",1,3,-0.877443751082,2,1,3,0.03,5,0.098,5,6e-04,666169,51849,6464,2,"1"
1,"W",23,"GC4",11359,17383,"permits",1,"W",1,1,555,605,11,1259832117,921875,159,159,359,59,555,1,2.05,7,2,"conversion.may_include_root","plural.singular present 3p","Noun.Verb",104,868,-614.225587486,13,2,816,8.16,138,2.7059,84,0.01,732616,65382,6476,16,"1"
1,"W",24,"GC4",11769,7689,"eden",1,"W",1,1,485,549,208,1259918649,63000,69,69,269,69,485,3,1.8,4,2,"irrelevant","singular","Noun",127,127,-887.628825721,1,1,649,6.49,1,0.0196,1,1e-04,621116,33672,1533,5,"1"
1,"W",26,"M",12816,289,"airstrip",1,"W",1,1,628,598,11,1260353013,656500,116,116,316,16,628,0,3.3,8,2,"complex","singular","Noun",29,32,-141.09149902,2,1,83,0.83,55,1.0784,38,0.0045,804377,35561,3257,1,"1"
1,"W",26,"M",12809,28407,"worthier",1,"W",1,1,560,579,10,1260353002,187500,109,109,309,9,560,1,2.45,8,2,"complex","comparative","Adjective",3,219,-5.52642908396,3,1,12,0.12,5,0.098,5,6e-04,757768,42468,7327,23,"1"
1,"W",26,"M",12968,6857,"distant",1,"W",1,1,492,574,172,1260353271,765500,268,268,468,68,492,0,2.1,7,2,"obscure","positive","Adjective",692,692,-6528.77842952,1,1,2921,29.21,392,7.6863,320,0.0381,747034,48629,8559,4,"1"
1,"W",26,"M",12777,28251,"wizards",1,"W",1,1,492,508,170,1260352942,937500,77,77,277,77,492,1,2.55,7,2,"complex","plural","Noun",6,42,-16.087588972,2,1,89,0.89,43,0.8431,31,0.0037,648068,42952,3152,23,"1"
1,"W",28,"GC1",13978,13775,"lentil",1,"W",1,1,605,624,11,1264526014,718875,278,778,478,78,605,0,2.4,6,2,"monomorphemic","singular","Noun",6,36,-16.087588972,2,1,32,0.32,9,0.1765,5,6e-04,701999,40258,4797,12,"1"
1,"W",28,"GC1",13975,15447,"moonstone",1,"W",1,1,602,570,159,1264526009,655875,275,775,475,75,602,0,2.95,9,2,"complex","singular","Noun",0,0,0,2,1,8,0.08,0,0,0,0,860623,59809,6049,13,"1"
1,"W",28,"GC1",13969,8045,"espouse",1,"W",1,1,641,696,11,1264525999,608875,269,769,469,69,641,0,2.45,7,2,"may_include_root","infinitive.plural present.singular 2p present.singular present 1p","Verb",16,43,-32.6903349096,44,1,68,0.68,2,0.0392,2,2e-04,775024,45862,3439,5,"1"
1,"W",29,"M",14563,12385,"impelled",1,"W",1,1,631,584,177,1264671590,296875,363,363,63,63,631,1,2.3,8,2,"may_include_root","past participle.plural past.singular 2p past.singular past 1p.singular past 3p","Verb",45,56,-143.10804725,55,1,124,1.24,6,0.1176,6,7e-04,753116,45015,10582,9,"1"
1,"W",29,"M",14271,5547,"crapping",1,"W",1,1,640,678,11,1264671069,561875,71,71,271,71,640,6,1.55,8,2,"conversion","present participle","Verb",1,12,-0.877443751082,11,1,11,0.11,19,0.3725,17,0.002,698049,61833,21006,3,"1"
1,"W",29,"M",14477,28219,"withdraw",1,"W",1,1,573,542,11,1264671437,921875,277,277,477,77,573,1,3.15,8,2,"complex","infinitive.plural present.singular 2p present.singular present 1p","Verb",268,775,-1625.82232692,44,1,1551,15.51,284,5.5686,205,0.0244,660667,21734,2291,23,"1"
1,"W",3,"GC4",1207,12199,"humbugs",1,"W",1,1,655,793,159,1256202160,765750,7,7,207,7,655,0,2.7,7,2,"conversion.monomorphemic","plural.singular present 3p","Noun.Verb",6,37,-15.6400977952,13,2,11,0.11,2,0.0392,2,2e-04,561204,36024,1549,8,"1"
1,"W",30,"M",14965,493,"antics",1,"W",1,0,479,810,11,1264757231,405375,265,265,465,65,479,1,2.15,6,2,"monomorphemic","singular","Noun",43,43,-233.485505838,1,1,246,2.46,49,0.9608,47,0.0056,691745,59264,4105,1,"1"
1,"W",31,"M",15361,11945,"homey",1,"W",1,1,686,542,10,1265016911,390250,161,161,361,61,686,5,1.65,5,2,"complex","positive","Adjective",8,8,-24.4947408548,3,1,13,0.13,156,3.0588,110,0.0131,549335,20366,1712,8,"1"
1,"W",31,"M",15513,17257,"peddles",1,"W",1,1,530,630,11,1265017171,203250,313,313,13,13,530,6,1.6,7,2,"may_include_root","singular present 3p","Verb",0,25,0,11,1,5,0.05,7,0.1373,7,8e-04,728379,72314,11547,16,"1"
1,"W",31,"M",15468,14821,"matches",1,"W",1,1,523,772,10,1265017089,953250,268,268,468,68,523,10,1.45,7,2,"conversion.monomorphemic","plural.singular present 3p","Noun.Verb",278,1575,-2110.9979671,13,2,2974,29.74,616,12.0784,492,0.0587,696309,67157,12373,13,"1"
1,"W",31,"M",15423,19973,"revokes",1,"W",1,1,582,600,11,1265017018,203250,223,223,423,23,582,1,1.85,7,2,"conversion.may_include_root","plural.singular present 3p","Noun.Verb",0,27,1,13,2,11,0.11,0,0,0,0,726500,60850,11511,18,"1"
1,"W",32,"GC1",16092,13353,"ladders",1,"W",1,1,480,460,160,1265133284,562250,392,392,92,92,480,1,1.8,7,2,"conversion.may_include_root","plural.singular present 3p","Noun.Verb",49,292,-275.147944482,13,2,240,2.4,31,0.6078,25,0.003,730427,62295,8890,12,"1"
1,"W",32,"GC1",15809,27571,"ware",1,"W",1,1,689,609,11,1265132817,250250,109,109,309,9,689,25,1,4,1,"conversion.monomorphemic","infinitive.singular","Noun.Verb",20,29,-81.0364111487,3,2,244,2.44,14,0.2745,8,0.001,569119,29890,2247,23,"1"
1,"W",32,"GC1",15969,28523,"wrung",1,"W",1,1,523,1288,11,1265133085,171250,269,269,469,69,523,2,1.85,5,1,"monomorphemic","past participle.plural past.singular 2p past.singular past 1p.singular past 3p","Verb",45,120,-143.10804725,55,1,104,1.04,14,0.2745,14,0.0017,532736,27921,7273,23,"1"
1,"W",32,"GC1",15873,14547,"mainly",1,"W",1,1,491,554,155,1265132921,562250,173,173,373,73,491,1,1.9,6,2,"complex","positive","Adverb",937,937,-9249.98727016,1,1,7075,70.75,200,3.9216,174,0.0207,609264,40986,5706,13,"1"
1,"W",33,"GC4",16529,3131,"burning",1,"W",1,1,488,519,148,1265362588,499875,329,329,29,29,488,5,1.75,7,2,"conversion.monomorphemic","positive.present participle","Adjective.Verb",684,1864,-5770.65607408,17,2,2845,28.45,1393,27.3137,1056,0.1259,659795,53711,20094,2,"1"
1,"W",34,"M",16866,6177,"daunting",1,"W",1,1,648,518,274,1265737919,828125,166,166,366,66,648,4,1.8,8,2,"monomorphemic","present participle","Verb",55,70,-318.103789403,11,1,478,4.78,15,0.2941,15,0.0018,733609,67118,22195,4,"1"
1,"W",34,"M",17065,19011,"quake",1,"W",1,1,647,652,11,1265738260,141125,365,365,65,65,647,0,1.9,5,1,"conversion.monomorphemic","infinitive.plural present.singular.singular 2p present.singular present 1p","Noun.Verb",7,39,-5.50924810895,46,2,98,0.98,47,0.9216,35,0.0042,542412,14147,1488,17,"1"
1,"W",34,"M",17090,13235,"kneel",1,"W",1,1,584,536,11,1265738302,344125,390,390,90,90,584,3,1.7,5,1,"monomorphemic","infinitive.plural present.singular 2p present.singular present 1p","Verb",60,406,-234.747831785,64,1,153,1.53,163,3.1961,128,0.0153,638461,15076,818,11,"1"
1,"W",34,"M",17169,4529,"closed",1,"W",1,1,552,736,171,1265738439,453125,469,469,169,69,552,4,1.75,6,1,"conversion","past participle.plural past.positive.singular 2p past.singular past 1p.singular past 3p","Adjective.Verb",1938,3010,-16726.4633587,56,2,9877,98.77,2649,51.9412,1822,0.2172,669405,39575,8836,3,"1"
1,"W",35,"GC1",17568,6431,"denote",1,"W",1,1,550,533,11,1265793510,328375,368,368,68,68,550,1,1.85,6,2,"complex","infinitive.plural present.singular 2p present.singular present 1p","Verb",28,58,-79.137596003,44,1,275,2.75,4,0.0784,4,5e-04,729180,41100,4122,4,"1"
1,"W",36,"M",17871,20695,"saucepans",1,"W",1,1,473,520,10,1265880355,858875,171,171,371,71,473,0,3.6,9,2,"complex","plural","Noun",43,208,-233.485505838,2,1,111,1.11,1,0.0196,1,1e-04,838409,60516,4896,19,"1"
1,"W",37,"GC2",18474,5125,"convoked",2,"N",0,1,NA,522,216,1266484962,203000,274,274,474,74,923,2,2.25,8,2,"may_include_root","past participle.plural past.singular 2p past.singular past 1p.singular past 3p","Verb",0,1,2.32192809489,55,1,10,0.1,0,0,0,0,687480,46835,12983,3,"1"
1,"W",37,"GC2",18409,9029,"flitted",1,"W",1,1,580,482,11,1266484855,656000,209,209,409,9,580,1,1.9,7,2,"monomorphemic","past participle.plural past.singular 2p past.singular past 1p.singular past 3p","Verb",20,56,-40.6899769181,55,1,93,0.93,4,0.0784,4,5e-04,705375,47135,11310,6,"1"
1,"W",37,"GC2",18491,23667,"starlit",1,"W",1,1,550,583,162,1266484989,219000,291,291,491,91,550,1,2.6,7,2,"complex","positive","Adjective",6,6,-16.087588972,1,1,21,0.21,6,0.1176,5,6e-04,754810,49526,4663,19,"1"
1,"W",37,"GC2",18417,16137,"ninnies",1,"W",1,1,729,520,178,1266484868,328000,217,217,417,17,729,2,2.1,7,2,"obscure","plural","Noun",2,5,-2.85224898312,2,1,3,0.03,9,0.1765,9,0.0011,812471,74674,11773,14,"1"
1,"W",37,"GC2",18453,13941,"lily",1,"W",1,1,583,501,11,1266484927,547000,253,253,453,53,583,5,1.75,4,2,"monomorphemic","singular","Noun",120,206,-828.895876724,2,1,1603,16.03,94,1.8431,65,0.0077,515219,23715,4422,12,"1"
1,"W",37,"GC2",18383,6667,"digressed",1,"W",1,1,643,630,163,1266484802,766000,183,183,383,83,643,1,2.5,9,2,"may_include_root","past participle.plural past.singular 2p past.singular past 1p.singular past 3p","Verb",5,17,-0.756269380625,55,1,12,0.12,0,0,0,0,876922,66096,14353,4,"1"
1,"W",38,"GC4",19145,4591,"clunked",1,"W",1,1,602,536,69,1266947616,250375,445,445,145,45,602,5,1.75,7,1,"monomorphemic","past participle.plural past.singular 2p past.singular past 1p.singular past 3p","Verb",0,5,2.32192809489,55,1,9,0.09,3,0.0588,3,4e-04,641261,37232,8516,3,"1"
1,"W",38,"GC4",18886,24589,"swampy",1,"W",1,1,568,568,227,1266947185,828375,186,186,386,86,568,1,1.9,6,2,"complex","positive","Adjective",9,9,-28.9913855623,3,1,38,0.38,10,0.1961,9,0.0011,549789,24423,979,19,"1"
1,"W",38,"GC4",18902,4391,"cleanse",1,"W",1,1,467,564,163,1266947217,250375,202,202,402,2,467,0,1.8,7,1,"monomorphemic","infinitive.plural present.singular 2p present.singular present 1p","Verb",20,59,-47.0669981872,44,1,112,1.12,62,1.2157,52,0.0062,787035,47240,3547,3,"1"
1,"W",39,"GC4",19503,25053,"tastier",1,"W",1,1,644,464,10,1266948228,328375,803,803,3,3,644,5,1.7,7,2,"complex","comparative","Adjective",4,56,-8.69563517714,3,1,13,0.13,5,0.098,5,6e-04,802154,55744,8421,20,"1"
1,"W",39,"GC4",19338,5261,"corrals",1,"W",1,1,534,585,11,1266947950,875375,638,638,338,38,534,0,2.05,7,2,"conversion.monomorphemic","plural.singular present 3p","Noun.Verb",1,18,-0.0250624987981,13,2,8,0.08,9,0.1765,5,6e-04,719961,62405,6346,3,"1"
1,"W",4,"GC3",1864,16589,"opting",1,"W",1,1,655,659,162,1256287666,438125,164,164,364,64,655,1,1.95,6,NA,NA,NA,NA,0,0,NA,NA,NA,418,4.18,5,0.098,5,6e-04,637106,53852,20756,15,"1"
1,"W",40,"GC2",19788,13257,"knit",1,"W",1,1,448,494,11,1267090250,578500,88,88,288,88,448,2,1.75,4,1,"monomorphemic","infinitive.past participle.plural past.plural present.singular 2p past.singular 2p present.singular past 1p.singular past 3p.singular present 1p","Verb",45,169,-105.114646187,144,1,1089,10.89,85,1.6667,74,0.0088,543171,15996,833,11,"1"
1,"W",40,"GC2",20018,693,"aside",1,"W",1,0,466,613,139,1267090653,812500,318,318,18,18,466,1,1.8,5,2,"complex.conversion","positive.singular","Adverb.Noun",752,760,-7078.93383697,3,2,3613,36.13,1067,20.9216,877,0.1046,668345,27101,1969,1,"1"
1,"W",40,"GC2",19962,7311,"drily",2,"N",0,1,NA,665,154,1267090553,812500,262,262,462,62,565,3,1.85,5,2,"complex","positive","Adverb",58,58,-339.886641562,1,1,411,4.11,0,0,0,0,561888,27830,4646,4,"1"
1,"W",41,"GC3",20278,26459,"trousers",1,"W",1,1,437,500,157,1267117447,16125,578,78,278,78,437,1,2.4,8,2,"complex","singular","Noun",508,508,-4566.27231476,1,1,2274,22.74,249,4.8824,180,0.0215,828942,74584,11378,20,"1"
1,"W",41,"GC3",20610,2225,"bombard",1,"W",1,1,474,569,151,1267118001,188125,910,410,110,10,474,0,2.55,7,2,"may_include_root","infinitive.plural present.singular 2p present.singular present 1p","Verb",8,48,-8.82411407545,44,1,48,0.48,11,0.2157,7,8e-04,606872,31212,2919,2,"1"
1,"W",42,"M",20861,23345,"spotted",1,"W",1,1,567,601,169,1267176650,94125,161,161,361,61,567,6,1.65,7,2,"conversion","past participle.plural past.positive.singular 2p past.singular past 1p.singular past 3p","Adjective.Verb",235,461,-1248.72845307,56,2,1644,16.44,500,9.8039,431,0.0514,732599,48255,11206,19,"1"
1,"W",42,"M",20789,23637,"stapler",1,"W",1,1,607,709,182,1267176523,875125,89,89,289,89,607,3,1.7,7,2,"complex","singular","Noun",0,0,0,2,1,13,0.13,41,0.8039,28,0.0033,747077,54828,8072,19,"1"
1,"W",42,"M",20988,14927,"meddled",1,"W",1,1,642,613,11,1267176871,234125,288,288,488,88,642,5,1.7,7,2,"monomorphemic","past participle.plural past.singular 2p past.singular past 1p.singular past 3p","Verb",5,56,-0.756269380625,55,1,11,0.11,15,0.2941,13,0.0015,686634,46038,9311,13,"1"
1,"W",42,"M",20843,18415,"preschool",1,"W",1,1,855,518,167,1267176621,140125,143,143,343,43,855,0,3.55,9,2,"complex","positive","Adjective",5,5,-12.2410413499,1,1,60,0.6,59,1.1569,42,0.005,790049,51856,6184,16,"1"
1,"W",42,"M",20878,4409,"clearing",1,"W",1,1,552,786,165,1267176678,109125,178,178,378,78,552,2,1.85,8,2,"conversion","present participle.singular","Noun.Verb",299,1034,-2161.54364834,13,2,1730,17.3,310,6.0784,273,0.0325,776695,75503,22622,3,"1"
1,"W",42,"M",21173,6413,"dement",1,"W",1,1,763,572,169,1267177198,781125,473,473,173,73,763,2,1.85,6,2,"may_include_root","infinitive.plural present.singular 2p present.singular present 1p","Verb",0,5,2,44,1,19,0.19,1,0.0196,1,1e-04,695262,37745,7502,4,"1"
1,"W",42,"M",20886,19719,"remind",1,"W",1,1,519,584,11,1267176691,156125,186,186,386,86,519,2,1.85,6,2,"complex","infinitive.plural present.singular 2p present.singular present 1p","Verb",360,1093,-2337.15430776,44,1,1745,17.45,1608,31.5294,1308,0.1559,673108,52349,5746,18,"1"
1,"W",42,"M",21127,10343,"glimpse",1,"W",1,1,613,916,11,1267177120,140125,427,427,127,27,613,0,2.65,7,1,"conversion.monomorphemic","infinitive.plural present.singular.singular 2p present.singular present 1p","Noun.Verb",310,470,-2418.69055653,46,2,1057,10.57,171,3.3529,162,0.0193,687324,28100,1912,7,"1"
1,"W",44,"GC4",22059,18655,"proscribe",1,"W",1,1,724,565,11,1267781371,609625,359,359,59,59,724,1,2.95,9,2,"may_include_root","infinitive.plural present.singular 2p present.singular present 1p","Verb",4,14,-0.76466250649,44,1,10,0.1,2,0.0392,2,2e-04,813219,40473,4679,16,"1"
1,"W",44,"GC4",21708,25557,"thrower",1,"W",1,1,536,653,13,1267780782,797625,8,8,208,8,536,0,2.3,7,2,"complex","singular","Noun",15,21,-58.937895627,2,1,78,0.78,23,0.451,16,0.0019,693125,38317,6515,20,"1"
1,"W",44,"GC4",21979,959,"bailed",1,"W",1,1,535,601,194,1267781233,468625,279,279,479,79,535,14,1.25,6,1,"conversion","past participle.plural past.singular 2p past.singular past 1p.singular past 3p","Verb",10,52,-10.8221590527,55,1,117,1.17,138,2.7059,126,0.015,655692,39548,9444,2,"1"
1,"W",44,"GC4",21952,18693,"proven",1,"W",1,1,523,672,169,1267781190,531625,252,252,452,52,523,2,1.85,6,2,"conversion.monomorphemic","past participle.positive","Adjective.Verb",116,2716,-686.099655296,13,2,799,7.99,336,6.5882,307,0.0366,643330,36994,5811,16,"1"
1,"W",44,"GC4",21820,3749,"cello",1,"W",1,1,511,610,214,1267780970,422625,120,120,320,20,511,3,1.75,5,2,"monomorphemic","singular","Noun",33,36,-166.655821582,2,1,192,1.92,90,1.7647,37,0.0044,610192,25250,1654,3,"1"
1,"W",45,"M",22490,17781,"plainer",1,"W",1,1,501,599,11,1268040666,328125,290,290,490,90,501,2,1.9,7,2,"monomorphemic","comparative","Adjective",17,527,-69.7942301159,3,1,47,0.47,4,0.0784,4,5e-04,745306,62054,8716,16,"1"
1,"W",46,"M",22884,12105,"hotly",1,"W",1,1,550,518,11,1268156714,78250,184,184,384,84,550,1,1.9,5,2,"complex","positive","Adverb",43,43,-233.485505838,1,1,246,2.46,6,0.1176,6,7e-04,537523,20448,4689,8,"1"
1,"W",46,"M",23033,21929,"signed",1,"W",1,1,555,588,11,1268156976,828250,333,333,33,33,555,4,1.8,6,1,"conversion","past participle.plural past.singular 2p past.singular past 1p.singular past 3p","Verb",495,877,-3281.6122476,55,1,6028,60.28,1676,32.8627,1187,0.1415,691278,41148,8664,19,"1"
1,"W",46,"M",23165,24931,"tamped",1,"W",1,1,610,613,166,1268157197,250250,465,465,165,65,610,4,1.6,6,1,"monomorphemic","past participle.plural past.singular 2p past.singular past 1p.singular past 3p","Verb",5,12,-0.756269380625,55,1,8,0.08,0,0,0,0,634267,35182,8607,20,"1"
1,"W",46,"M",23057,7817,"embroil",1,"W",1,1,553,653,11,1268157015,984250,357,357,57,57,553,0,2.8,7,2,"complex","infinitive.plural present.singular 2p present.singular present 1p","Verb",4,28,-0.76466250649,44,1,12,0.12,1,0.0196,1,1e-04,693972,19610,1391,5,"1"
1,"W",46,"M",22926,5145,"cooking",1,"W",1,1,561,711,11,1268156790,531250,226,226,426,26,561,9,1.4,7,2,"conversion.monomorphemic","positive.present participle.singular","Adjective.Noun.Verb",692,1630,-5696.52132608,13,3,2674,26.74,1228,24.0784,865,0.1031,650548,58298,22984,3,"1"
1,"W",46,"M",23157,4285,"circuits",1,"W",1,1,507,621,170,1268157184,265250,457,457,157,57,507,0,2.65,8,2,"monomorphemic","plural","Noun",92,328,-600.253359541,2,1,622,6.22,133,2.6078,95,0.0113,755925,50914,4059,3,"1"
1,"W",47,"M",23414,9061,"flooring",1,"W",1,1,521,519,11,1268157642,421250,714,714,414,14,521,2,1.9,8,2,"conversion","present participle.singular","Noun.Verb",7,22,-19.7727638785,12,2,209,2.09,22,0.4314,18,0.0021,720222,63836,21245,6,"1"
1,"W",47,"M",23307,21089,"scuffs",1,"W",1,1,568,635,175,1268157460,265250,607,607,307,7,568,3,1.7,6,1,"conversion.monomorphemic","plural.singular present 3p","Noun.Verb",0,37,1,13,2,5,0.05,6,0.1176,4,5e-04,580841,42848,1467,19,"1"
1,"W",48,"GC4",23928,7429,"ducats",1,"W",1,1,582,601,10,1268301231,265250,228,228,428,28,582,0,2.15,6,2,"monomorphemic","plural","Noun",17,18,-69.7942301159,2,1,16,0.16,41,0.8039,15,0.0018,630058,50953,4635,4,"1"
1,"W",49,"GC4",24630,2927,"bucket",1,"W",1,1,607,560,172,1268385702,30875,430,430,130,30,607,1,1.9,6,2,"conversion.monomorphemic","infinitive.plural present.singular.singular 2p present.singular present 1p","Noun.Verb",237,368,-1869.5398194,46,2,999,9.99,467,9.1569,374,0.0446,583683,23627,2537,2,"1"
1,"W",49,"GC4",24501,3521,"carefree",1,"W",1,1,682,588,10,1268385486,983875,301,301,1,1,682,0,3,8,2,"complex","positive","Adjective",29,29,-141.09149902,1,1,186,1.86,66,1.2941,56,0.0067,834531,52186,4058,3,"1"
1,"W",49,"GC4",24237,20959,"scourging",1,"W",1,1,573,657,11,1268385027,952875,37,37,237,37,573,0,2.45,9,2,"monomorphemic","present participle","Verb",7,13,-20.1843413509,11,1,14,0.14,0,0,0,0,765084,69321,20813,19,"1"
1,"W",5,"GC3",2331,13511,"lashed",1,"W",1,1,593,645,156,1256288566,563125,631,631,331,31,593,9,1.35,6,1,"monomorphemic","past participle.plural past.singular 2p past.singular past 1p.singular past 3p","Verb",85,152,-347.741598687,55,1,277,2.77,15,0.2941,14,0.0017,662641,37735,9433,12,"1"
1,"W",50,"GC4",25066,27301,"vistas",1,"W",1,1,564,532,83,1268645989,968375,366,866,66,66,564,0,1.9,6,2,"monomorphemic","plural","Noun",38,92,-199.592812413,2,1,101,1.01,11,0.2157,11,0.0013,680340,51514,4011,22,"1"
1,"W",52,"GC4",25982,11541,"healthier",1,"W",1,1,498,447,10,1268904516,765375,282,282,482,82,498,1,2.55,9,2,"complex","comparative","Adjective",58,727,-339.886641562,3,1,387,3.87,61,1.1961,59,0.007,844579,49645,7312,8,"1"
1,"W",52,"GC4",26136,2059,"blubber",1,"W",1,1,499,530,234,1268904776,797375,436,436,136,36,499,1,1.85,7,2,"conversion.may_include_root","infinitive.plural present.singular.singular 2p present.singular present 1p","Noun.Verb",9,27,-12.3058561737,45,2,43,0.43,41,0.8039,33,0.0039,615407,33186,5825,2,"1"
1,"W",52,"GC4",25836,10591,"gown",1,"W",1,1,570,655,10,1268904277,812375,136,136,336,36,570,5,1.6,4,1,"conversion.monomorphemic","infinitive.plural present.singular.singular 2p present.singular present 1p","Noun.Verb",165,223,-1215.32064464,46,2,840,8.4,324,6.3529,258,0.0308,502491,14050,2090,7,"1"
1,"W",52,"GC4",25838,5569,"cravats",1,"W",1,1,533,650,11,1268904281,62375,138,138,338,38,533,0,2.6,7,2,"monomorphemic","plural","Noun",7,18,-20.1843413509,2,1,15,0.15,4,0.0784,4,5e-04,692369,58386,4994,3,"1"
1,"W",53,"M",26418,10809,"griping",1,"W",1,1,547,764,11,1268930438,796875,718,218,418,18,547,2,1.85,7,2,"monomorphemic","present participle","Verb",8,12,-24.4947408548,11,1,17,0.17,25,0.4902,23,0.0027,674032,54235,19616,7,"1"
1,"W",53,"M",26459,14515,"maid",1,"W",1,1,499,797,158,1268930504,359875,759,259,459,59,499,7,1.45,4,1,"monomorphemic","singular","Noun",227,309,-1776.66716125,2,1,943,9.43,1082,21.2157,580,0.0691,532322,20265,1712,13,"1"
1,"W",54,"M",26870,15317,"mitt",1,"W",1,1,556,490,11,1268931193,890875,1170,670,370,70,556,5,1.7,4,1,"monomorphemic","singular","Noun",0,5,0,2,1,14,0.14,66,1.2941,51,0.0061,552334,20779,1572,13,"1"
1,"W",55,"M",27671,7485,"duke",1,"W",1,1,446,442,11,1268990035,968750,471,471,171,71,446,5,1.65,4,1,"monomorphemic","singular","Noun",684,727,-6441.826975,2,1,3342,33.42,206,4.0392,77,0.0092,514017,17007,482,4,"1"
1,"W",55,"M",27691,6361,"defines",1,"W",1,1,485,565,264,1268990067,468750,491,491,191,91,485,3,1.75,7,2,"may_include_root","singular present 3p","Verb",67,990,-406.538401386,11,1,641,6.41,45,0.8824,44,0.0052,767382,81177,13932,4,"1"
1,"W",55,"M",27316,19485,"rear",1,"W",1,1,488,719,164,1268989456,750750,116,116,316,16,488,16,1,4,1,"conversion.monomorphemic","infinitive.plural present.singular.singular 2p present.singular present 1p","Noun.Verb",455,694,-3660.73717821,46,2,2746,27.46,590,11.5686,437,0.0521,615289,31766,4883,18,"1"
1,"W",58,"GC4",28909,11229,"hamper",1,"W",1,1,509,574,10,1269279766,625750,1209,209,409,9,509,5,1.7,6,2,"may_include_root","infinitive.plural present.singular.singular 2p present.singular present 1p","Noun.Verb",49,133,-187.7157571,46,2,190,1.9,71,1.3922,59,0.007,622470,33792,7244,8,"1"
1,"W",6,"GC3",3069,22847,"solely",1,"W",1,1,599,584,11,1256661365,625500,369,369,69,69,599,1,1.95,6,2,"complex","positive","Adverb",254,254,-2029.16289629,1,1,1663,16.63,88,1.7255,84,0.01,659131,37703,5139,19,"1"
1,"W",8,"M",3852,16613,"ordain",1,"W",1,1,693,532,10,1257240693,281125,152,152,352,52,693,0,2.4,6,2,"monomorphemic","infinitive.plural present.singular 2p present.singular present 1p","Verb",8,80,-8.82411407545,44,1,51,0.51,7,0.1373,6,7e-04,678037,39700,2637,15,"1"
1,"W",8,"M",4027,12957,"judah",1,"W",1,1,738,530,10,1257240999,296125,327,327,27,27,738,1,2.65,5,2,"irrelevant","singular","Noun",67,67,-406.538401386,1,1,48,0.48,0,0,0,0,496677,4923,319,10,"1"
1,"W",8,"M",3800,2971,"bugle",1,"W",1,1,537,653,11,1257240598,578125,100,100,300,100,537,0,1.75,5,2,"conversion.monomorphemic","infinitive.plural present.singular.singular 2p present.singular present 1p","Noun.Verb",12,20,-42.3537462693,46,2,48,0.48,65,1.2745,38,0.0045,554372,24529,2533,2,"1"
1,"W",9,"M",4591,27057,"valve",1,"W",1,1,612,531,10,1257267536,640125,891,391,91,91,612,5,1.65,5,1,"monomorphemic","singular","Noun",87,151,-560.625694738,2,1,749,7.49,227,4.451,133,0.0159,560195,21537,1265,22,"1"
1,"W",9,"M",4387,6417,"demesnes",2,"N",0,1,NA,803,11,1257267190,671125,687,187,387,87,600,0,2.7,8,2,"may_include_root","plural","Noun",0,6,0,2,1,20,0.2,0,0,0,0,863711,79629,12947,4,"1"
10,"N",1,"M",225,36390,"endanged",1,"N",1,0,NA,1101,169,1255949244,327875,25,25,225,25,6006,1,2.55,8,NA,NA,NA,NA,0,0,NA,NA,NA,0,0,0,0,0,0,792098,58585,10037,5,"1"
10,"N",1,"M",607,40492,"falding",1,"N",1,0,1002,670,7690,1255950534,858875,407,407,107,7,1002,3,1.8,7,NA,NA,NA,NA,0,0,NA,NA,NA,0,0,0,0,0,0,648024,56244,19698,6,"1"
10,"N",10,"M",5174,41464,"joffling",1,"N",1,1,746,538,174,1256041628,375125,2474,974,174,74,746,0,2.45,8,NA,NA,NA,NA,0,0,NA,NA,NA,0,0,0,0,0,0,626586,51317,20808,10,"1"
10,"N",11,"M",5693,34726,"dars",1,"N",1,1,605,524,11,1256042680,672125,2993,1493,193,93,605,19,1,4,NA,NA,NA,NA,0,0,NA,NA,NA,0,0,0,0,0,0,571744,45070,4059,4,"1"
10,"N",11,"M",5617,36896,"horting",1,"N",1,1,548,497,169,1256042549,250125,2917,1417,117,17,548,4,1.75,7,NA,NA,NA,NA,0,0,NA,NA,NA,0,0,0,0,0,0,687054,63743,22744,8,"1"
10,"N",11,"M",5315,56254,"waffed",2,"W",0,0,NA,1145,170,1256041911,422125,2615,1115,315,15,577,2,1.85,6,NA,NA,NA,NA,0,0,NA,NA,NA,0,0,0,0,0,0,572318,27075,8055,23,"1"
10,"N",11,"M",5610,54188,"tommiers",1,"N",1,1,528,511,11,1256042538,234125,2910,1410,110,10,528,0,2.8,8,NA,NA,NA,NA,0,0,NA,NA,NA,0,0,0,0,0,0,780771,65332,8649,20,"1"
10,"N",11,"M",5441,32442,"chalve",1,"N",1,1,835,581,199,1256042187,891125,2741,1241,441,41,835,0,1.9,6,NA,NA,NA,NA,0,0,NA,NA,NA,0,0,0,0,0,0,602086,34738,2852,3,"1"
10,"N",12,"GC4",5879,35850,"plebbles",1,"N",1,1,766,558,11,1256043570,344125,3179,1679,379,79,766,0,2.85,8,NA,NA,NA,NA,0,0,NA,NA,NA,0,0,0,0,0,0,736395,69561,11804,16,"1"
10,"N",12,"GC4",5852,40892,"titted",2,"W",0,0,NA,770,10,1256043519,453125,3152,1652,352,52,792,8,1.55,6,NA,NA,NA,NA,0,0,NA,NA,NA,2,0.02,0,0,0,0,706521,50113,10447,20,"1"
10,"N",12,"GC4",6094,50396,"shookfold",1,"N",1,1,640,777,11,1256044008,485125,3394,1894,94,94,640,0,3.85,9,NA,NA,NA,NA,0,0,NA,NA,NA,0,0,0,0,0,0,698826,34406,2970,19,"1"
10,"N",12,"GC4",5978,44904,"oze",1,"N",1,1,492,540,11,1256043763,750125,3278,1778,478,78,492,4,1.65,3,NA,NA,NA,NA,0,0,NA,NA,NA,0,0,0,0,0,0,501740,11517,371,15,"1"
10,"N",12,"GC4",6019,50496,"shipreads",1,"N",1,1,765,658,10,1256043874,344125,3319,1819,19,19,765,0,2.9,9,NA,NA,NA,NA,0,0,NA,NA,NA,0,0,0,0,0,0,835005,65473,5906,19,"1"
10,"N",12,"GC4",5798,47480,"pyphens",1,"N",1,1,558,626,152,1256043351,766125,3098,1598,298,98,558,1,2.75,7,NA,NA,NA,NA,0,0,NA,NA,NA,0,0,0,0,0,0,649898,52511,3656,16,"1"
10,"N",13,"GC4",6421,39666,"gylgasts",1,"N",1,1,519,1002,10,1256044733,188125,3721,2221,421,21,519,0,3.5,8,NA,NA,NA,NA,0,0,NA,NA,NA,0,0,0,0,0,0,709552,47528,4722,7,"1"
10,"N",13,"GC4",6227,37562,"florends",1,"N",1,1,607,1461,147,1256044354,63125,3527,2027,227,27,607,0,2.95,8,NA,NA,NA,NA,0,0,NA,NA,NA,0,0,0,0,0,0,764034,65110,4325,6,"1"
10,"N",13,"GC4",6463,39292,"pleatier",1,"N",1,1,925,924,11,1256044805,313125,3763,2263,463,63,925,0,2.15,8,NA,NA,NA,NA,0,0,NA,NA,NA,0,0,0,0,0,0,831134,65093,10903,16,"1"
10,"N",15,"GC4",7446,49534,"slimpered",1,"N",1,0,729,470,148,1256046968,828125,4746,3246,446,46,729,1,2.3,9,NA,NA,NA,NA,0,0,NA,NA,NA,0,0,0,0,0,0,836460,68756,11829,19,"1"
10,"N",16,"GC4",8085,34596,"psar",1,"N",1,1,732,640,11,1256126283,405500,385,385,85,85,732,2,1.85,4,NA,NA,NA,NA,0,0,NA,NA,NA,0,0,0,0,0,0,564838,23058,545,16,"1"
10,"N",16,"GC4",7994,41640,"veeps",1,"N",1,0,518,1851,11,1256126121,937500,294,294,494,94,518,7,1.65,5,NA,NA,NA,NA,0,0,NA,NA,NA,0,0,0,0,0,0,633638,37062,1334,22,"1"
10,"N",16,"GC4",7972,48612,"hicked",2,"W",0,1,NA,563,234,1256126084,952500,272,272,472,72,787,9,1.5,6,NA,NA,NA,NA,0,0,NA,NA,NA,0,0,0,0,0,0,600348,35107,9096,8,"1"
10,"N",17,"GC4",8507,45624,"poose",1,"N",1,1,754,463,11,1256134357,890500,807,307,7,7,754,8,1.55,5,NA,NA,NA,NA,0,0,NA,NA,NA,0,0,0,0,0,0,644863,28630,2356,16,"1"
10,"N",17,"GC4",8395,32436,"blales",1,"N",1,1,584,535,151,1256134163,187500,695,195,395,95,584,4,1.75,6,NA,NA,NA,NA,0,0,NA,NA,NA,0,0,0,0,0,0,667752,68287,10659,2,"1"
10,"N",18,"GC4",9047,37192,"fint",1,"N",1,1,626,513,157,1256135438,593500,1347,847,47,47,626,13,1.1,4,NA,NA,NA,NA,0,0,NA,NA,NA,0,0,0,0,0,0,548236,39006,3535,6,"1"
10,"N",18,"GC4",9081,52574,"stasser",1,"N",1,1,610,578,165,1256135493,968500,1381,881,81,81,610,0,2,7,NA,NA,NA,NA,0,0,NA,NA,NA,0,0,0,0,0,0,818588,56654,8970,19,"1"
10,"N",18,"GC4",8847,31188,"spandashed",1,"N",1,1,560,611,158,1256135109,452500,1147,647,347,47,560,0,3.8,10,NA,NA,NA,NA,0,0,NA,NA,NA,0,0,0,0,0,0,860997,58251,11325,19,"1"
10,"N",18,"GC4",8837,48712,"cinened",1,"N",1,1,481,562,11,1256135093,655500,1137,637,337,37,481,0,2.4,7,NA,NA,NA,NA,0,0,NA,NA,NA,0,0,0,0,0,0,772975,68432,10272,3,"1"
10,"N",2,"M",877,40736,"huggle",1,"N",1,1,NA,1029,178,1255951603,108875,677,677,377,77,1937,2,1.9,6,NA,NA,NA,NA,0,0,NA,NA,NA,0,0,0,0,0,0,582939,22271,2290,8,"1"
10,"N",2,"M",870,40408,"heke",1,"N",1,1,721,879,194,1255951578,983875,670,670,370,70,721,4,1.8,4,NA,NA,NA,NA,0,0,NA,NA,NA,0,0,0,0,0,0,560961,18154,857,8,"1"
10,"N",20,"GC4",9906,29106,"airclaps",1,"N",1,1,763,389,184,1256137093,968500,2206,1706,406,6,763,0,3.15,8,NA,NA,NA,NA,0,0,NA,NA,NA,0,0,0,0,0,0,758725,44787,1970,1,"1"
10,"N",20,"GC4",9752,29924,"bune",1,"N",1,1,689,561,158,1256136821,187500,2052,1552,252,52,689,10,1.45,4,NA,NA,NA,NA,0,0,NA,NA,NA,0,0,0,0,0,0,545794,24411,1597,2,"1"
10,"N",20,"GC4",10166,33126,"scecking",1,"N",1,1,615,701,158,1256137539,374500,2466,1966,166,66,615,0,2,8,NA,NA,NA,NA,0,0,NA,NA,NA,0,0,0,0,0,0,730261,62686,20309,19,"1"
10,"N",21,"GC4",10316,42334,"titschier",1,"N",1,1,488,469,249,1256137904,671500,2616,2116,316,16,488,1,2.95,9,NA,NA,NA,NA,0,0,NA,NA,NA,0,0,0,0,0,0,858158,56299,7092,20,"1"
10,"N",21,"GC4",10250,41276,"onsue",2,"W",0,1,NA,576,232,1256137791,562500,2550,2050,250,50,719,1,2,5,NA,NA,NA,NA,0,0,NA,NA,NA,0,0,0,0,0,0,651700,27276,2273,15,"1"
10,"N",22,"GC1",11024,44918,"illsets",1,"N",1,1,548,581,155,1256216279,844125,324,324,24,24,548,0,2.65,7,NA,NA,NA,NA,0,0,NA,NA,NA,0,0,0,0,0,0,781532,50908,4912,9,"1"
10,"N",22,"GC1",11053,42850,"tifelier",1,"N",1,1,482,512,11,1256216326,47125,353,353,53,53,482,2,2.65,8,NA,NA,NA,NA,0,0,NA,NA,NA,0,0,0,0,0,0,826682,51694,6782,20,"1"
10,"N",22,"GC1",10924,45306,"beq",1,"N",1,1,447,509,149,1256216115,78125,224,224,424,24,447,6,1.65,3,NA,NA,NA,NA,0,0,NA,NA,NA,0,0,0,0,0,0,462650,7970,920,2,"1"
10,"N",22,"GC1",11050,42420,"lism",1,"N",1,1,426,421,11,1256216321,438125,350,350,50,50,426,2,1.85,4,NA,NA,NA,NA,0,0,NA,NA,NA,0,0,0,0,0,0,550642,17112,2053,12,"1"
10,"N",22,"GC1",10844,48408,"rebelves",1,"N",1,1,500,449,11,1256215981,453125,144,144,344,44,500,0,2.65,8,NA,NA,NA,NA,0,0,NA,NA,NA,0,0,0,0,0,0,807352,67454,11735,18,"1"
10,"N",23,"GC1",11429,33476,"comshosed",1,"N",1,1,467,398,148,1256217055,31125,729,729,429,29,467,0,3.35,9,NA,NA,NA,NA,0,0,NA,NA,NA,0,0,0,0,0,0,788778,49691,12950,3,"1"
10,"N",23,"GC1",11297,31058,"dottam",1,"N",1,1,415,526,11,1256216835,406125,597,597,297,97,415,0,2.7,6,NA,NA,NA,NA,0,0,NA,NA,NA,0,0,0,0,0,0,630582,19148,1379,4,"1"
10,"N",23,"GC1",11212,50060,"seathes",1,"N",1,1,606,575,196,1256216695,719125,512,512,212,12,606,2,1.85,7,NA,NA,NA,NA,0,0,NA,NA,NA,0,0,0,0,0,0,801499,78481,12034,19,"1"
10,"N",24,"GC1",11873,56300,"wirlers",1,"N",1,1,581,599,11,1256218124,781125,1173,1173,373,73,581,0,1.95,7,NA,NA,NA,NA,0,0,NA,NA,NA,0,0,0,0,0,0,738779,60059,7592,23,"1"
10,"N",24,"GC1",11755,50368,"clawn",1,"N",1,1,590,525,11,1256217913,547125,1055,1055,255,55,590,2,1.75,5,NA,NA,NA,NA,0,0,NA,NA,NA,0,0,0,0,0,0,553577,23387,1857,3,"1"
10,"N",24,"GC1",12051,39610,"genser",1,"N",1,1,610,746,217,1256218439,47125,1351,1351,51,51,610,5,1.75,6,NA,NA,NA,NA,0,0,NA,NA,NA,0,0,0,0,0,0,738138,43539,6231,7,"1"
10,"N",24,"GC1",12032,54896,"towndraffs",1,"N",1,1,652,557,11,1256218407,188125,1332,1332,32,32,652,0,4.75,10,NA,NA,NA,NA,0,0,NA,NA,NA,0,0,0,0,0,0,772765,53448,2750,20,"1"
10,"N",25,"GC1",12318,35578,"dollads",2,"W",0,1,NA,694,11,1256218972,734125,1618,1618,318,18,432,1,2.45,7,NA,NA,NA,NA,0,0,NA,NA,NA,0,0,0,0,0,0,680894,50099,3072,4,"1"
10,"N",25,"GC1",12290,51848,"sellbird",1,"N",1,1,694,568,11,1256218920,672125,1590,1590,290,90,694,0,3.3,8,NA,NA,NA,NA,0,0,NA,NA,NA,0,0,0,0,0,0,760709,37679,3021,19,"1"
10,"N",25,"GC1",12637,44900,"osknents",1,"N",1,1,545,495,11,1256219548,953125,1937,1937,137,37,545,0,3.65,8,NA,NA,NA,NA,0,0,NA,NA,NA,0,0,0,0,0,0,811424,54908,6535,15,"1"
10,"N",25,"GC1",12512,50764,"shether",1,"N",1,1,586,489,11,1256219334,172125,1812,1812,12,12,586,1,1.95,7,NA,NA,NA,NA,0,0,NA,NA,NA,0,0,0,0,0,0,749483,49264,8028,19,"1"
10,"N",25,"GC1",12475,41070,"inchimed",1,"N",1,1,604,739,11,1256219268,969125,1775,1775,475,75,604,0,2.75,8,NA,NA,NA,NA,0,0,NA,NA,NA,0,0,0,0,0,0,732081,56793,11132,9,"1"
10,"N",26,"GC1",13053,45784,"dyr",1,"N",1,1,664,469,11,1256220369,609125,2353,2353,53,53,664,1,1.9,3,NA,NA,NA,NA,0,0,NA,NA,NA,0,0,0,0,0,0,457217,11348,47,4,"1"
10,"N",26,"GC1",12809,30014,"bedges",1,"N",1,1,691,581,11,1256219930,750125,2109,2109,309,9,691,6,1.65,6,NA,NA,NA,NA,0,0,NA,NA,NA,0,0,0,0,0,0,672901,62880,9890,2,"1"
10,"N",27,"GC1",13498,34302,"crostbiece",1,"N",1,1,519,601,11,1256221434,125,2798,2798,498,98,519,0,3.8,10,NA,NA,NA,NA,0,0,NA,NA,NA,0,0,0,0,0,0,906472,47275,3433,3,"1"
10,"N",27,"GC1",13537,52630,"stawled",1,"N",1,1,940,606,179,1256221506,625125,2837,2837,37,37,940,3,1.8,7,NA,NA,NA,NA,0,0,NA,NA,NA,0,0,0,0,0,0,707813,51079,10612,19,"1"
10,"N",27,"GC1",13378,44156,"guc",1,"N",1,1,740,582,159,1256221223,281125,2678,2678,378,78,740,5,1.75,3,NA,NA,NA,NA,0,0,NA,NA,NA,0,0,0,0,0,0,442528,5503,283,7,"1"
10,"N",28,"GC1",13763,37846,"hareman",1,"N",1,1,524,540,11,1256221945,625125,3063,3063,263,63,524,0,2.5,7,NA,NA,NA,NA,0,0,NA,NA,NA,0,0,0,0,0,0,712859,42508,4095,8,"1"
10,"N",3,"M",1643,38938,"skurose",1,"N",1,0,781,2559,11,1255954382,139875,1443,1443,143,43,781,0,2.95,7,NA,NA,NA,NA,0,0,NA,NA,NA,0,0,0,0,0,0,727289,35627,1846,19,"1"
10,"N",3,"M",1410,53552,"sustoves",1,"N",1,1,1346,779,10,1255953486,608875,1210,1210,410,10,1346,0,2.95,8,NA,NA,NA,NA,0,0,NA,NA,NA,0,0,0,0,0,0,793925,76060,11964,19,"1"
10,"N",30,"M",14880,53402,"sunrerned",1,"N",1,1,643,613,175,1256287874,93750,680,680,380,80,643,0,2.9,9,NA,NA,NA,NA,0,0,NA,NA,NA,0,0,0,0,0,0,884341,66092,9350,19,"1"
10,"N",30,"M",14809,52434,"smooshing",1,"N",1,1,691,730,268,1256287757,968750,609,609,309,9,691,2,2.6,9,NA,NA,NA,NA,0,0,NA,NA,NA,0,0,3,0.0588,2,2e-04,785249,63820,19894,19,"1"
10,"N",30,"M",14771,37754,"footdake",1,"N",1,1,504,585,178,1256287690,61750,571,571,271,71,504,0,2.9,8,NA,NA,NA,NA,0,0,NA,NA,NA,0,0,0,0,0,0,719298,23828,2152,6,"1"
10,"N",31,"M",15284,46556,"poned",1,"N",1,1,744,501,168,1256288554,296750,1084,1084,284,84,744,8,1.4,5,NA,NA,NA,NA,0,0,NA,NA,NA,0,0,0,0,0,0,611346,44882,9767,16,"1"
10,"N",32,"M",15957,33164,"causeman",1,"N",1,1,703,528,397,1256558987,546625,257,257,457,57,703,0,2.85,8,NA,NA,NA,NA,0,0,NA,NA,NA,0,0,0,0,0,0,765381,41689,4344,3,"1"
10,"N",33,"M",16335,38226,"groshing",1,"N",1,1,632,535,177,1256559674,202625,635,635,335,35,632,1,1.95,8,NA,NA,NA,NA,0,0,NA,NA,NA,0,0,0,0,0,0,725106,57657,20712,7,"1"
10,"N",34,"M",16829,35090,"deprire",1,"N",1,1,584,552,176,1256560803,327625,1129,1129,329,29,584,0,2.7,7,NA,NA,NA,NA,0,0,NA,NA,NA,0,0,0,0,0,0,764581,42332,3695,4,"1"
10,"N",34,"M",16710,55556,"ugfers",1,"N",1,1,455,584,175,1256560609,562625,1010,1010,210,10,455,0,2,6,NA,NA,NA,NA,0,0,NA,NA,NA,0,0,0,0,0,0,636104,49234,6628,21,"1"
10,"N",34,"M",16958,37842,"forooth",1,"N",1,1,490,704,198,1256561041,890625,1258,1258,458,58,490,0,2.75,7,NA,NA,NA,NA,0,0,NA,NA,NA,0,0,0,0,0,0,661210,27693,4048,6,"1"
10,"N",34,"M",16983,39840,"honged",1,"N",1,1,493,475,10,1256561082,124625,1283,1283,483,83,493,7,1.6,6,NA,NA,NA,NA,0,0,NA,NA,NA,0,0,0,0,0,0,630813,50323,9029,8,"1"
10,"N",35,"M",17505,45438,"pabost",1,"N",1,1,419,380,184,1256646896,155875,305,305,5,5,419,0,2.55,6,NA,NA,NA,NA,0,0,NA,NA,NA,0,0,0,0,0,0,632765,32569,4019,16,"1"
10,"N",36,"M",17963,28750,"afed",1,"N",1,1,506,554,11,1256647844,608875,763,763,463,63,506,5,1.7,4,NA,NA,NA,NA,0,0,NA,NA,NA,0,0,0,0,0,0,549409,24751,6944,1,"1"
10,"N",36,"M",18048,51532,"thut",1,"N",1,1,518,534,11,1256648007,561875,848,848,48,48,518,8,1.5,4,NA,NA,NA,NA,0,0,NA,NA,NA,0,0,1,0.0196,1,1e-04,515351,19064,2303,20,"1"
10,"N",37,"M",18229,38418,"fulp",1,"N",1,1,736,727,11,1256648349,421875,1029,1029,229,29,736,3,1.85,4,NA,NA,NA,NA,0,0,NA,NA,NA,0,0,0,0,0,0,464832,9663,880,6,"1"
10,"N",37,"M",18283,49352,"monctioned",1,"N",1,0,618,1454,167,1256648440,749875,1083,1083,283,83,618,0,3.05,10,NA,NA,NA,NA,0,0,NA,NA,NA,0,0,0,0,0,0,866199,69489,17204,13,"1"
10,"N",38,"M",18766,37598,"broky",1,"N",1,1,556,473,11,1256656837,686875,1566,66,266,66,556,1,1.95,5,NA,NA,NA,NA,0,0,NA,NA,NA,0,0,0,0,0,0,503036,20677,1333,2,"1"
10,"N",4,"GC4",1824,56238,"wilded",2,"W",0,0,NA,2569,11,1255964893,625500,1624,124,324,24,519,6,1.65,6,NA,NA,NA,NA,0,0,NA,NA,NA,0,0,0,0,0,0,622559,32806,8140,23,"1"
10,"N",40,"GC4",20070,43656,"mimpshains",1,"N",1,0,746,689,177,1256727494,953000,370,370,70,70,746,0,4.5,10,NA,NA,NA,NA,0,0,NA,NA,NA,0,0,0,0,0,0,820576,71182,6386,13,"1"
10,"N",40,"GC4",20136,56434,"waylorm",1,"N",1,1,839,735,11,1256727638,5e+05,436,436,136,36,839,0,2.95,7,NA,NA,NA,NA,0,0,NA,NA,NA,0,0,0,0,0,0,606121,18304,1987,23,"1"
10,"N",40,"GC4",19917,51674,"whow",1,"N",1,0,541,692,168,1256727182,828000,217,217,417,17,541,6,1.55,4,NA,NA,NA,NA,0,0,NA,NA,NA,1,0.01,1,0.0196,1,1e-04,449330,8979,780,23,"1"
10,"N",40,"GC4",19762,29396,"etchly",1,"N",1,1,940,639,155,1256726815,656000,62,62,262,62,940,0,2.55,6,NA,NA,NA,NA,0,0,NA,NA,NA,0,0,0,0,0,0,602503,22399,4294,5,"1"
10,"N",41,"GC4",20425,50226,"sowes",1,"N",1,1,461,475,11,1256728190,547000,725,725,425,25,461,4,1.65,5,NA,NA,NA,NA,0,0,NA,NA,NA,0,0,0,0,0,0,644463,57655,8989,19,"1"
10,"N",41,"GC4",20489,35614,"dooped",1,"N",1,0,474,771,11,1256728291,187000,789,789,489,89,474,4,1.7,6,NA,NA,NA,NA,0,0,NA,NA,NA,0,0,0,0,0,0,639471,34454,8355,4,"1"
10,"N",41,"GC4",20566,31684,"buhf",1,"N",1,1,363,373,203,1256728418,687000,866,866,66,66,363,3,1.85,4,NA,NA,NA,NA,0,0,NA,NA,NA,0,0,0,0,0,0,434615,7947,749,2,"1"
10,"N",43,"GC1",21433,39188,"gronge",1,"N",1,0,703,859,11,1256733270,594500,1733,733,433,33,703,1,1.95,6,NA,NA,NA,NA,0,0,NA,NA,NA,0,0,0,0,0,0,660966,43729,2922,7,"1"
10,"N",43,"GC1",21695,47830,"rarched",1,"N",1,0,479,443,11,1256733700,265500,1995,995,195,95,479,2,1.85,7,NA,NA,NA,NA,0,0,NA,NA,NA,0,0,0,0,0,0,696316,46541,9561,18,"1"
10,"N",43,"GC1",21428,49652,"plissirs",1,"N",1,1,489,519,177,1256733261,828500,1728,728,428,28,489,0,3,8,NA,NA,NA,NA,0,0,NA,NA,NA,0,0,0,0,0,0,811685,62048,5877,16,"1"
10,"N",43,"GC1",21400,30006,"beril",2,"W",0,1,NA,477,11,1256733207,750500,1700,700,400,100,1103,2,1.9,5,NA,NA,NA,NA,0,0,NA,NA,NA,0,0,0,0,0,0,621440,34869,2888,2,"1"
10,"N",44,"GC1",21797,40410,"hured",1,"N",1,1,873,720,11,1256734258,359500,2097,1097,297,97,873,4,1.75,5,NA,NA,NA,NA,0,0,NA,NA,NA,0,0,1,0.0196,1,1e-04,579742,35503,8885,8,"1"
10,"N",44,"GC1",21903,37932,"fostmight",1,"N",1,1,649,620,150,1256734507,469500,2203,1203,403,3,649,0,3.6,9,NA,NA,NA,NA,0,0,NA,NA,NA,0,0,0,0,0,0,731026,31443,3495,6,"1"
10,"N",45,"GC1",22674,38300,"fushed",1,"N",1,1,690,646,11,1256736056,656500,2974,1974,174,74,690,7,1.55,6,NA,NA,NA,NA,0,0,NA,NA,NA,0,0,0,0,0,0,605951,34582,8549,6,"1"
10,"N",48,"M",23961,44386,"nandow",1,"N",1,0,474,637,170,1256821818,358750,261,261,461,61,474,0,2.8,6,NA,NA,NA,NA,0,0,NA,NA,NA,0,0,0,0,0,0,623607,20881,2963,14,"1"
10,"N",49,"M",24407,51974,"flongled",1,"N",1,0,506,404,11,1256822631,765750,707,707,407,7,506,0,2.85,8,NA,NA,NA,NA,0,0,NA,NA,NA,0,0,0,0,0,0,705623,58796,9984,6,"1"
10,"N",49,"M",24306,33970,"rexing",2,"W",0,0,NA,445,11,1256822464,561750,606,606,306,6,657,3,1.85,6,NA,NA,NA,NA,0,0,NA,NA,NA,0,0,0,0,0,0,649389,55395,20594,18,"1"
10,"N",49,"M",24568,52522,"shigger",1,"N",1,1,588,525,10,1256822953,905750,868,868,68,68,588,2,1.9,7,NA,NA,NA,NA,0,0,NA,NA,NA,0,0,0,0,0,0,702870,42659,6717,19,"1"
10,"N",49,"M",24449,31926,"caicets",1,"N",1,0,634,571,11,1256822698,686750,749,749,449,49,634,0,2.35,7,NA,NA,NA,NA,0,0,NA,NA,NA,0,0,0,0,0,0,753567,56807,5580,3,"1"
10,"N",5,"GC4",2288,40466,"holk",1,"N",1,1,NA,686,172,1255966010,625500,2088,588,288,88,2152,9,1.55,4,NA,NA,NA,NA,0,0,NA,NA,NA,0,0,0,0,0,0,479470,10662,1270,8,"1"
10,"N",5,"GC4",2519,44260,"mupshed",1,"N",1,1,1019,2290,150,1255966534,125500,2319,819,19,19,1019,0,2.35,7,NA,NA,NA,NA,0,0,NA,NA,NA,0,0,0,0,0,0,635970,34867,8370,13,"1"
10,"N",51,"GC1",25310,55104,"stosses",1,"N",1,1,592,1194,11,1257168011,656375,610,610,310,10,592,0,1.95,7,NA,NA,NA,NA,0,0,NA,NA,NA,0,0,0,0,0,0,825974,76505,12554,19,"1"
10,"N",51,"GC1",25388,37736,"feals",1,"N",1,1,714,687,10,1257168149,31375,688,688,388,88,714,12,1.4,5,NA,NA,NA,NA,0,0,NA,NA,NA,0,0,1,0.0196,1,1e-04,626112,44411,2222,6,"1"
10,"N",51,"GC1",25613,34272,"cropeer",1,"N",1,1,429,575,148,1257168539,468375,913,913,113,13,429,1,2.1,7,NA,NA,NA,NA,0,0,NA,NA,NA,0,0,0,0,0,0,752713,44324,6578,3,"1"
10,"N",53,"GC1",26597,43460,"munged",1,"N",1,1,524,540,166,1257252198,94125,897,897,97,97,524,3,1.85,6,NA,NA,NA,NA,0,0,NA,NA,NA,0,0,0,0,0,0,606040,43120,8329,13,"1"
10,"N",53,"GC1",26218,48178,"reflals",1,"N",1,0,NA,507,11,1257251566,562125,518,518,218,18,60,0,2.4,7,NA,NA,NA,NA,0,0,NA,NA,NA,0,0,0,0,0,0,721554,56015,4898,18,"1"
10,"N",54,"GC1",27006,37994,"fourbokes",1,"N",1,0,631,684,11,1257253284,203125,1306,1306,6,6,631,0,3.55,9,NA,NA,NA,NA,0,0,NA,NA,NA,0,0,0,0,0,0,741498,63346,10356,6,"1"
10,"N",54,"GC1",26743,52028,"speepers",1,"N",1,1,764,873,176,1257252831,750125,1043,1043,243,43,764,2,2,8,NA,NA,NA,NA,0,0,NA,NA,NA,0,0,0,0,0,0,860906,69687,9560,19,"1"
10,"N",55,"GC4",27590,41576,"jarky",1,"N",1,1,694,767,247,1257258386,250000,1890,390,90,90,694,5,1.75,5,NA,NA,NA,NA,0,0,NA,NA,NA,0,0,0,0,0,0,494255,16313,617,10,"1"
10,"N",55,"GC4",27386,50358,"shast",1,"N",1,1,812,607,219,1257258004,844000,1686,186,386,86,812,2,1.8,5,NA,NA,NA,NA,0,0,NA,NA,NA,0,0,0,0,0,0,626755,36051,4184,19,"1"
10,"N",55,"GC4",27606,47478,"pycix",1,"N",1,1,602,488,162,1257258420,203000,1906,406,106,6,602,0,2.95,5,NA,NA,NA,NA,0,0,NA,NA,NA,0,0,0,0,0,0,492311,10473,57,16,"1"
10,"N",55,"GC4",27583,40368,"hillwade",1,"N",1,1,598,800,148,1257258373,578000,1883,383,83,83,598,0,3.5,8,NA,NA,NA,NA,0,0,NA,NA,NA,0,0,0,0,0,0,708598,32065,2313,8,"1"
10,"N",55,"GC4",27678,53556,"subuse",1,"N",1,1,612,666,173,1257258542,907000,1978,478,178,78,612,0,2.45,6,NA,NA,NA,NA,0,0,NA,NA,NA,0,0,0,0,0,0,653383,31052,2688,19,"1"
10,"N",56,"GC4",28121,30822,"bearkers",1,"N",1,1,526,926,196,1257259610,860000,2421,921,121,21,526,0,1.85,8,NA,NA,NA,NA,0,0,NA,NA,NA,0,0,0,0,0,0,794496,68338,9372,2,"1"
10,"N",56,"GC4",27797,32694,"chirbier",1,"N",1,1,596,532,149,1257258972,563000,2097,597,297,97,596,1,2.7,8,NA,NA,NA,NA,0,0,NA,NA,NA,0,0,0,0,0,0,751213,43701,7063,3,"1"
10,"N",56,"GC4",28068,43842,"moads",1,"N",1,1,688,594,149,1257259512,782000,2368,868,68,68,688,8,1.5,5,NA,NA,NA,NA,0,0,NA,NA,NA,0,0,0,0,0,0,588862,37646,2428,13,"1"
10,"N",57,"GC4",28631,39162,"slimmars",1,"N",1,1,711,869,11,1257260582,453000,2931,1431,131,31,711,1,2.6,8,NA,NA,NA,NA,0,0,NA,NA,NA,0,0,0,0,0,0,751704,62665,5277,19,"1"
10,"N",57,"GC4",28603,55332,"tuds",1,"N",1,1,660,397,147,1257260537,328000,2903,1403,103,3,660,11,1.3,4,NA,NA,NA,NA,0,0,NA,NA,NA,0,0,0,0,0,0,540842,35077,1601,20,"1"
10,"N",58,"GC4",28896,37922,"forsheer",1,"N",1,1,615,486,167,1257261068,578000,3196,1696,396,96,615,0,2.95,8,NA,NA,NA,NA,0,0,NA,NA,NA,0,0,0,0,0,0,798037,46485,7909,6,"1"
10,"N",58,"GC4",28829,35340,"disdunge",1,"N",1,1,621,708,11,1257260959,657000,3129,1629,329,29,621,0,3.3,8,NA,NA,NA,NA,0,0,NA,NA,NA,0,0,0,0,0,0,750617,43871,4228,4,"1"
10,"N",6,"GC4",2720,32914,"clabs",1,"N",1,1,1249,762,151,1256029245,47125,20,20,220,20,1249,9,1.45,5,NA,NA,NA,NA,0,0,NA,NA,NA,0,0,0,0,0,0,571185,43978,1502,3,"1"
10,"N",6,"GC4",2913,29968,"bassed",2,"W",0,0,NA,667,11,1256029756,938125,213,213,413,13,662,10,1.45,6,NA,NA,NA,NA,0,0,NA,NA,NA,0,0,0,0,0,0,686937,39441,9776,2,"1"
10,"N",6,"GC4",3062,30098,"beety",1,"N",1,0,NA,2355,220,1256030154,860125,362,362,62,62,1594,3,1.8,5,NA,NA,NA,NA,0,0,NA,NA,NA,1,0.01,0,0,0,0,615380,21977,2139,2,"1"
10,"N",6,"GC4",2873,55712,"upshides",1,"N",1,1,1338,3122,151,1256029648,313125,173,173,373,73,1338,0,2.95,8,NA,NA,NA,NA,0,0,NA,NA,NA,0,0,0,0,0,0,749264,60142,10257,21,"1"
10,"N",6,"GC4",2840,54654,"foast",1,"N",1,0,820,1299,147,1256029568,969125,140,140,340,40,820,5,1.65,5,NA,NA,NA,NA,0,0,NA,NA,NA,0,0,0,0,0,0,606776,26297,3623,6,"1"
10,"N",6,"GC4",2747,47798,"ranned",1,"N",1,1,NA,766,160,1256029321,719125,47,47,247,47,7699,10,1.5,6,NA,NA,NA,NA,0,0,NA,NA,NA,0,0,0,0,0,0,703924,44200,9584,18,"1"
10,"N",7,"GC4",3576,56756,"glinder",1,"N",1,1,772,666,70,1256031283,313125,876,876,76,76,772,2,1.85,7,NA,NA,NA,NA,0,0,NA,NA,NA,0,0,0,0,0,0,718762,60354,9347,7,"1"
10,"N",7,"GC4",3492,56364,"wartboom",1,"N",1,1,1129,720,153,1256031114,297125,792,792,492,92,1129,0,3.35,8,NA,NA,NA,NA,0,0,NA,NA,NA,0,0,0,0,0,0,677620,23154,2889,23,"1"
10,"N",8,"GC4",4003,42070,"lillers",1,"N",1,0,827,972,10,1256032289,860125,1303,1303,3,3,827,3,1.85,7,NA,NA,NA,NA,0,0,NA,NA,NA,0,0,0,0,0,0,754177,70364,9160,12,"1"
10,"N",8,"GC4",4151,56202,"wawns",1,"N",1,1,600,436,10,1256032632,547125,1451,1451,151,51,600,7,1.65,5,NA,NA,NA,NA,0,0,NA,NA,NA,0,0,0,0,0,0,559918,37811,3547,23,"1"
10,"N",9,"M",4480,31614,"beucing",1,"N",1,1,663,850,11,1256040222,531125,1780,280,480,80,663,0,2,7,NA,NA,NA,NA,0,0,NA,NA,NA,0,0,0,0,0,0,666203,50402,19055,2,"1"
10,"N",9,"M",4349,44138,"murstes",1,"N",1,1,NA,4182,11,1256039887,953125,1649,149,349,49,1554,0,2.25,7,NA,NA,NA,NA,0,0,NA,NA,NA,0,0,0,0,0,0,739610,72766,11407,13,"1"
10,"N",9,"M",4692,31050,"doshing",1,"N",1,1,1063,518,10,1256040747,375125,1992,492,192,92,1063,5,1.7,7,NA,NA,NA,NA,0,0,NA,NA,NA,0,0,0,0,0,0,676042,55116,19983,4,"1"
10,"W",1,"M",209,35283,"dinar",1,"N",0,1,NA,1021,11,1255949178,905875,9,9,209,9,1547,1,1.9,5,2,"monomorphemic","singular","Noun",1,2,-0.877443751082,2,1,94,0.94,18,0.3529,14,0.0017,624812,45072,3899,4,"1"
10,"W",1,"M",268,47537,"quavers",2,"W",1,1,1002,1039,10,1255949374,14875,68,68,268,68,1002,2,1.9,7,2,"conversion.monomorphemic","plural.singular present 3p","Noun.Verb",8,36,-16.6921160598,13,2,47,0.47,1,0.0196,1,1e-04,665037,53708,9320,17,"1"
10,"W",1,"M",361,37183,"filet",2,"W",1,1,1323,17745,166,1255949735,561875,161,161,361,61,1323,2,1.75,5,2,"monomorphemic","singular","Noun",3,3,-5.52642908396,2,1,7,0.07,40,0.7843,33,0.0039,619253,27205,2108,6,"1"
10,"W",10,"M",4807,46341,"platter",2,"W",1,1,555,1273,11,1256040974,47125,2107,607,307,7,555,5,1.55,7,2,"may_include_root","singular","Noun",35,43,-179.707476438,2,1,111,1.11,141,2.7647,121,0.0144,733958,55254,10601,16,"1"
10,"W",11,"M",5318,35351,"discounts",2,"W",1,1,463,477,11,1256041916,94125,2618,1118,318,18,463,3,2.35,9,2,"complex.conversion","plural.singular present 3p","Noun.Verb",23,187,-85.3792156942,13,2,574,5.74,20,0.3922,15,0.0018,813884,69376,9580,4,"1"
10,"W",11,"M",5433,38935,"glowing",2,"W",1,1,629,599,215,1256042174,594125,2733,1233,433,33,629,4,1.75,7,2,"conversion.monomorphemic","positive.present participle","Adjective.Verb",175,330,-1183.94660352,12,2,813,8.13,178,3.4902,154,0.0184,632095,51026,19294,7,"1"
10,"W",11,"M",5637,38751,"ghastly",2,"W",1,1,487,484,175,1256042583,469125,2937,1437,137,37,487,1,2.55,7,2,"obscure","positive","Adjective",160,161,-1171.56293401,3,1,430,4.3,92,1.8039,78,0.0093,635572,31773,4961,7,"1"
10,"W",12,"GC4",5801,28749,"abed",1,"N",0,1,NA,618,11,1256043434,313125,3101,1601,301,1,789,5,1.7,4,2,"complex","positive","Adjective",4,4,-8.69563517714,1,1,23,0.23,6,0.1176,6,7e-04,551021,27284,7233,1,"1"
10,"W",12,"GC4",6184,40153,"heartier",2,"W",1,1,NA,704,11,1256044210,828125,3484,1984,184,84,2153,0,2,8,2,"complex","comparative","Adjective",3,89,-5.52642908396,3,1,5,0.05,2,0.0392,2,2e-04,841054,55816,8990,8,"1"
10,"W",12,"GC4",5908,49831,"scriptures",2,"W",1,1,566,585,10,1256043639,438125,3208,1708,408,8,566,0,2.95,10,2,"complex","plural","Noun",24,84,-110.280254382,2,1,294,2.94,24,0.4706,22,0.0026,895570,79477,12822,19,"1"
10,"W",13,"GC4",6694,50963,"siren",2,"W",1,1,606,625,11,1256045269,985125,3994,2494,194,94,606,2,1.8,5,3,"monomorphemic","singular","Noun",51,92,-289.430526909,2,1,257,2.57,260,5.098,189,0.0225,690476,40481,2280,19,"1"
10,"W",14,"GC4",6934,51337,"slogging",2,"W",1,1,622,442,11,1256045889,735125,4234,2734,434,34,622,4,1.75,8,2,"monomorphemic","present participle","Verb",9,22,-28.9913855623,11,1,31,0.31,2,0.0392,2,2e-04,715742,58287,19620,19,"1"
10,"W",15,"GC4",7256,38439,"gaffed",1,"N",0,1,NA,876,155,1256046630,782125,4556,3056,256,56,959,2,1.85,6,1,"conversion","past participle.plural past.singular 2p past.singular past 1p.singular past 3p","Verb",0,5,2.32192809489,55,1,5,0.05,1,0.0196,1,1e-04,588007,26812,7739,7,"1"
10,"W",15,"GC4",7602,43355,"mauve",2,"W",1,1,737,461,10,1256047258,875125,4902,3402,102,2,737,0,1.95,5,1,"conversion.monomorphemic","positive.singular","Adjective.Noun",81,84,-446.810958925,3,2,222,2.22,13,0.2549,11,0.0013,559677,21437,1831,13,"1"
10,"W",16,"GC4",8083,38153,"friends",2,"W",1,1,427,655,176,1256126279,983500,383,383,83,83,427,1,1.95,7,1,"conversion.monomorphemic","plural.singular","Noun",3674,6761,-41764.6284055,5,3,15089,150.89,14864,291.451,5402,0.644,735424,56992,4151,6,"1"
10,"W",16,"GC4",7880,36793,"faints",2,"W",1,1,544,612,153,1256125925,312500,180,180,380,80,544,5,1.7,6,1,"conversion","plural.singular present 3p","Noun.Verb",3,128,-2.81814903925,13,2,11,0.11,17,0.3333,15,0.0018,674577,63754,6688,6,"1"
10,"W",17,"GC4",8310,54235,"theists",1,"N",0,0,NA,555,174,1256134023,187500,610,110,310,10,1258,0,1.95,7,2,"complex","plural","Noun",0,0,0,2,1,46,0.46,0,0,0,0,775226,57310,6906,20,"1"
10,"W",17,"GC4",8407,44687,"nonce",1,"N",0,1,NA,544,11,1256134189,608500,707,207,407,7,496,1,1.85,5,1,"monomorphemic","singular","Noun",2,2,-2.85224898312,1,1,15,0.15,3,0.0588,3,4e-04,642902,27276,2824,14,"1"
10,"W",17,"GC4",8505,30385,"bey",1,"N",0,0,NA,449,217,1256134354,624500,805,305,5,5,677,12,1.15,3,1,"monomorphemic","singular","Noun",4,4,-8.69563517714,2,1,101,1.01,0,0,0,0,473169,15479,1080,2,"1"
10,"W",18,"GC4",9077,46329,"plate",2,"W",1,1,526,575,10,1256135487,687500,1377,877,77,77,526,5,1.5,5,1,"conversion.monomorphemic","infinitive.plural present.singular.singular 2p present.singular present 1p","Noun.Verb",656,1005,-6138.51376136,46,2,4096,40.96,1280,25.098,905,0.1079,623705,41445,6407,16,"1"
10,"W",18,"GC4",9000,42559,"lino",1,"N",0,1,NA,446,10,1256135356,937500,1300,800,0,100,658,7,1.6,4,2,"monomorphemic","singular","Noun",19,19,-80.9952487141,1,1,115,1.15,1,0.0196,1,1e-04,572985,32311,2592,12,"1"
10,"W",18,"GC4",9109,56789,"whops",1,"N",0,1,NA,717,232,1256135546,77500,1409,909,109,9,565,4,1.6,5,1,"conversion.monomorphemic","plural.singular present 3p","Noun.Verb",0,1,1,13,2,1,0.01,1,0.0196,1,1e-04,532421,35537,1444,23,"1"
10,"W",18,"GC4",8860,46993,"prim",2,"W",1,1,586,505,181,1256135130,77500,1160,660,360,60,586,6,1.45,4,1,"conversion.monomorphemic","infinitive.plural present.positive.singular 2p present.singular present 1p","Adjective.Verb",77,78,-452.021076527,47,2,122,1.22,17,0.3333,16,0.0019,522447,20595,2742,16,"1"
10,"W",19,"GC4",9654,47371,"pupate",1,"N",0,1,NA,599,162,1256136500,718500,1954,1454,154,54,771,0,2,6,2,"complex","infinitive.plural present.singular 2p present.singular present 1p","Verb",0,0,2,44,1,12,0.12,3,0.0588,3,4e-04,636110,41531,5290,16,"1"
10,"W",19,"GC4",9426,57255,"yank",2,"W",1,1,436,465,171,1256136113,108500,1726,1226,426,26,436,10,1.4,4,1,"complex.conversion.monomorphemic","infinitive.plural present.singular.singular 2p present.singular present 1p","Noun.Verb",19,69,-32.5198795034,48,3,67,0.67,107,2.098,95,0.0113,493886,9923,552,25,"1"
10,"W",2,"M",857,30453,"bills",2,"W",1,1,553,520,179,1255951543,827875,657,657,357,57,553,16,1.05,5,1,"conversion.monomorphemic","plural.singular present 3p","Noun.Verb",383,1400,-3286.60355063,13,2,3054,30.54,1055,20.6863,737,0.0879,586640,42750,3000,2,"1"
10,"W",2,"M",888,31663,"bunnies",2,"W",1,1,663,767,11,1255951626,218875,688,688,388,88,663,2,1.9,7,2,"obscure","plural","Noun",8,27,-24.4947408548,2,1,31,0.31,77,1.5098,55,0.0066,734778,60638,11486,2,"1"
10,"W",20,"GC4",9800,36443,"entail",2,"W",1,1,512,477,164,1256136903,93500,2100,1600,300,100,512,0,2.2,6,2,"complex.conversion","infinitive.plural present.singular.singular 2p present.singular present 1p","Noun.Verb",61,175,-234.759720977,46,2,409,4.09,29,0.5686,28,0.0033,720354,29134,4677,5,"1"
10,"W",20,"GC4",10071,39957,"harts",2,"W",1,1,1113,1004,152,1256137373,218500,2371,1871,71,71,1113,14,1.05,5,1,"monomorphemic","plural","Noun",0,80,0,2,1,7,0.07,0,0,0,0,614211,45735,5491,8,"1"
10,"W",21,"GC4",10310,38865,"gleaner",2,"W",1,1,525,507,152,1256137895,171500,2610,2110,310,10,525,2,1.8,7,2,"complex","singular","Noun",11,14,-38.4627126105,2,1,5,0.05,0,0,0,0,768591,49010,6352,7,"1"
10,"W",21,"GC4",10529,48983,"roughshod",1,"N",0,1,NA,806,253,1256138347,483500,2829,2329,29,29,507,0,3.7,9,2,"complex.conversion","positive","Adjective.Adverb",8,8,-24.1129746453,2,2,38,0.38,14,0.2745,13,0.0015,710622,35811,3360,18,"1"
10,"W",21,"GC4",10272,39189,"granges",1,"N",0,1,NA,677,231,1256137827,515500,2572,2072,272,72,928,1,1.85,7,2,"monomorphemic","plural","Noun",0,15,0,2,1,5,0.05,0,0,0,0,734082,75566,11941,7,"1"
10,"W",21,"GC4",10354,41643,"keepsakes",2,"W",1,1,562,546,11,1256137967,765500,2654,2154,354,54,562,0,3.75,9,2,"complex","plural","Noun",1,5,-0.877443751082,2,1,9,0.09,5,0.098,4,5e-04,856698,54465,9300,11,"1"
10,"W",22,"GC1",10843,56505,"wednesday",2,"W",1,1,449,878,797,1256215979,906125,143,143,343,43,449,1,4,9,2,"obscure","singular","Noun",380,399,-3256.57141084,2,1,4406,44.06,29,0.5686,23,0.0027,799798,44927,3583,23,"1"
10,"W",22,"GC1",10848,48845,"roger",2,"W",1,1,478,460,180,1256215987,484125,148,148,348,48,478,3,1.85,5,2,"irrelevant","headword.singular","Interjection.Noun",364,364,-3046.97176224,2,2,2578,25.78,77,1.5098,50,0.006,635064,34893,5550,18,"1"
10,"W",22,"GC1",11122,46097,"pillows",2,"W",1,0,449,445,139,1256216444,969125,422,422,122,22,449,2,1.85,7,2,"conversion.monomorphemic","plural.singular present 3p","Noun.Verb",97,350,-640.205821716,13,2,413,4.13,156,3.0588,121,0.0144,658209,50857,2925,16,"1"
10,"W",24,"GC1",12186,42051,"lantern",2,"W",1,1,543,978,152,1256218668,203125,1486,1486,186,86,543,0,1.95,7,2,"monomorphemic","singular","Noun",75,107,-467.262344422,2,1,256,2.56,89,1.7451,61,0.0073,767508,53659,7159,12,"1"
10,"W",25,"GC1",12634,53473,"support",2,"W",1,1,458,638,11,1256219543,891125,1934,1934,134,34,458,0,2.4,7,2,"conversion.may_include_root","infinitive.plural present.singular.singular 2p present.singular present 1p","Noun.Verb",3265,4511,-33484.4309038,46,2,29835,298.35,2489,48.8039,1620,0.1931,666952,34152,2786,19,"1"
10,"W",25,"GC1",12439,50787,"shyness",2,"W",1,1,645,582,11,1256219206,766125,1739,1739,439,39,645,1,2.5,7,2,"complex","singular","Noun",65,65,-391.567017407,1,1,185,1.85,28,0.549,27,0.0032,737060,65869,7487,19,"1"
10,"W",26,"GC1",12986,36771,"failings",2,"W",1,1,770,696,11,1256220238,672125,2286,2286,486,86,770,2,1.8,8,2,"conversion","plural","Noun",29,48,-141.09149902,2,1,205,2.05,15,0.2941,14,0.0017,749342,77045,15771,6,"1"
10,"W",27,"GC1",13535,30783,"bluebell",2,"W",1,0,760,1069,11,1256221502,984125,2835,2835,35,35,760,0,3.3,8,2,"complex","singular","Noun",8,13,-24.4947408548,2,1,69,0.69,1,0.0196,1,1e-04,712144,23555,2534,2,"1"
10,"W",27,"GC1",13462,48879,"roof",2,"W",1,0,669,1208,152,1256221376,328125,2762,2762,462,62,669,8,1.45,4,1,"conversion.monomorphemic","infinitive.plural present.singular.singular 2p present.singular present 1p","Noun.Verb",831,1023,-8059.59045843,46,2,4154,41.54,1766,34.6275,1120,0.1335,534235,15990,1442,18,"1"
10,"W",28,"GC1",14104,45673,"peaks",2,"W",1,1,443,590,11,1256222527,594125,3404,3404,104,4,443,8,1.45,5,1,"conversion.monomorphemic","plural.singular present 3p","Noun.Verb",116,541,-795.53781311,13,2,973,9.73,55,1.0784,45,0.0054,605396,44491,2335,16,"1"
10,"W",28,"GC1",13939,49505,"scald",2,"W",1,1,550,700,186,1256222245,703125,3239,3239,439,39,550,4,1.7,5,1,"conversion.monomorphemic","infinitive.plural present.singular.singular 2p present.singular present 1p","Noun.Verb",8,30,-8.4753785351,46,2,23,0.23,14,0.2745,14,0.0017,587191,32652,2343,19,"1"
10,"W",28,"GC1",13710,31901,"cairns",1,"N",0,1,NA,390,11,1256221855,859125,3010,3010,210,10,476,1,1.9,6,1,"monomorphemic","plural","Noun",24,45,-110.280254382,2,1,236,2.36,1,0.0196,1,1e-04,692320,49297,4658,3,"1"
10,"W",28,"GC1",14178,42197,"leaching",2,"W",1,1,599,534,11,1256222649,172125,3478,3478,178,78,599,4,1.65,8,2,"monomorphemic","present participle","Verb",6,62,-16.087588972,11,1,137,1.37,2,0.0392,2,2e-04,740192,64574,21026,12,"1"
10,"W",28,"GC1",14000,37865,"foresight",2,"W",1,1,533,516,13,1256222345,688125,3300,3300,0,100,533,0,3.25,9,2,"complex","singular","Noun",49,49,-275.261936347,1,1,208,2.08,37,0.7255,35,0.0042,799666,51512,6774,6,"1"
10,"W",29,"M",14613,51803,"soldier",2,"W",1,1,492,541,11,1256287417,624750,413,413,113,13,492,0,1.85,7,2,"conversion.monomorphemic","infinitive.plural present.singular.singular 2p present.singular present 1p","Noun.Verb",468,1507,-4076.96783785,46,2,1812,18.12,1823,35.7451,789,0.0941,758629,44917,6636,19,"1"
10,"W",3,"M",1360,44981,"ones",2,"W",1,1,546,13400,182,1255953274,749875,1160,1160,360,60,546,5,1.4,4,1,"conversion","plural","Noun",2555,37195,-28920.3248491,2,1,11756,117.56,4985,97.7451,3129,0.373,623644,59013,10735,15,"1"
10,"W",3,"M",1547,43591,"midriff",2,"W",1,1,1153,628,11,1255954093,921875,1347,1347,47,47,1153,0,2.85,7,2,"complex","singular","Noun",12,13,-43.4066478329,2,1,71,0.71,8,0.1569,7,8e-04,621326,21064,2368,13,"1"
10,"W",31,"M",15367,28757,"abides",2,"W",1,1,781,476,10,1256288694,77750,1167,1167,367,67,781,3,1.75,6,2,"may_include_root","singular present 3p","Verb",8,84,-24.4947408548,16,1,15,0.15,4,0.0784,3,4e-04,683622,56878,9899,1,"1"
10,"W",31,"M",15221,32639,"chintz",1,"N",0,0,NA,429,173,1256288451,764750,1021,1021,221,21,434,0,2.3,6,1,"monomorphemic","singular","Noun",10,10,-33.6530228633,1,1,68,0.68,10,0.1961,9,0.0011,586752,41492,4018,3,"1"
10,"W",32,"M",15727,38831,"glacial",2,"W",1,1,583,584,200,1256558587,280625,27,27,227,27,583,0,2.8,7,2,"obscure","positive","Adjective",19,19,-80.9952487141,1,1,270,2.7,5,0.098,5,6e-04,675937,24988,2898,7,"1"
10,"W",32,"M",16091,57371,"yonder",2,"W",1,1,547,1014,181,1256559213,390625,391,391,91,91,547,3,1.85,6,2,"conversion.may_include_root","positive","Adjective.Adverb",24,24,-86.5459992463,2,2,81,0.81,163,3.1961,117,0.0139,654197,40406,6909,25,"1"
10,"W",32,"M",15782,55013,"transients",2,"W",1,1,756,381,173,1256558679,218625,82,82,282,82,756,0,2.8,10,2,"conversion","plural","Noun",8,12,-24.4947408548,2,1,34,0.34,13,0.2549,9,0.0011,982878,79176,11158,20,"1"
10,"W",32,"M",15766,52011,"spartans",2,"W",1,1,589,475,11,1256558653,140625,66,66,266,66,589,1,2.65,8,2,"complex","plural","Noun",7,7,-20.1843413509,2,1,121,1.21,0,0,0,0,802401,67520,6758,19,"1"
10,"W",32,"M",15831,41691,"kickback",2,"W",1,0,418,813,11,1256558764,312625,131,131,331,31,418,0,2.95,8,2,"complex","singular","Noun",5,9,-12.2410413499,2,1,8,0.08,15,0.2941,14,0.0017,584475,20282,3275,11,"1"
10,"W",32,"M",16002,37021,"feigned",2,"W",1,1,616,468,168,1256559069,77625,302,302,2,2,616,2,2.1,7,1,"monomorphemic","past participle.plural past.singular 2p past.singular past 1p.singular past 3p","Verb",35,68,-98.7890001648,55,1,88,0.88,7,0.1373,5,6e-04,724357,33079,8327,6,"1"
10,"W",33,"M",16347,32795,"civet",1,"N",0,1,NA,500,218,1256559692,749625,647,647,347,47,567,2,1.85,5,2,"monomorphemic","singular","Noun",0,1,0,2,1,8,0.08,6,0.1176,4,5e-04,604246,27123,1993,3,"1"
10,"W",33,"M",16662,40071,"heading",2,"W",1,1,828,505,171,1256560213,390625,962,962,162,62,828,10,1.45,7,2,"conversion","present participle.singular","Noun.Verb",325,938,-2477.32131345,13,2,2852,28.52,1607,31.5098,1173,0.1398,700614,57824,20939,8,"1"
10,"W",35,"M",17445,35507,"dockers",2,"W",1,0,491,890,11,1256646796,14875,245,245,445,45,491,6,1.65,7,2,"complex","plural","Noun",39,52,-206.298900525,2,1,171,1.71,3,0.0588,1,1e-04,693391,60396,8904,4,"1"
10,"W",35,"M",17444,49579,"scats",1,"N",0,1,NA,671,180,1256646794,483875,244,244,444,44,890,9,1.4,5,1,"monomorphemic","singular present 3p","Verb",0,0,0,11,1,56,0.56,0,0,0,0,638677,56257,5120,19,"1"
10,"W",36,"M",17993,34831,"dealt",2,"W",1,0,422,483,247,1256647892,77875,793,793,493,93,422,1,1.85,5,1,"monomorphemic","past participle.plural past.singular 2p past.singular past 1p.singular past 3p","Verb",405,1871,-2567.73416052,55,1,3500,35,376,7.3725,338,0.0403,630611,29484,2612,4,"1"
10,"W",36,"M",18157,33665,"contort",2,"W",1,1,551,584,182,1256648192,155875,957,957,157,57,551,1,1.9,7,2,"may_include_root","infinitive.plural present.singular 2p present.singular present 1p","Verb",4,55,-0.76466250649,44,1,11,0.11,5,0.098,5,6e-04,717464,49199,8202,3,"1"
10,"W",36,"M",17709,35455,"ditches",2,"W",1,1,448,545,10,1256647405,702875,509,509,209,9,448,6,1.65,7,2,"conversion.monomorphemic","plural.singular present 3p","Noun.Verb",66,191,-386.145453631,13,2,267,2.67,41,0.8039,33,0.0039,714545,65081,12424,4,"1"
10,"W",37,"M",18401,44455,"necktie",1,"N",0,1,NA,489,11,1256648705,311875,1201,1201,401,1,512,0,2.85,7,2,"complex","singular","Noun",25,34,-116.33054553,2,1,15,0.15,59,1.1569,41,0.0049,748748,35396,1495,14,"1"
10,"W",37,"M",18493,45285,"paddy",2,"W",1,1,405,500,170,1256648851,311875,1293,1293,493,93,405,4,1.8,5,2,"monomorphemic.obscure","singular","Noun",34,43,-158.59696906,4,2,889,8.89,43,0.8431,32,0.0038,515846,20900,1748,16,"1"
10,"W",37,"M",18329,48647,"rifle",2,"W",1,1,557,1359,214,1256648556,421875,1129,1129,329,29,557,0,1.7,5,2,"conversion.monomorphemic","infinitive.plural present.singular.singular 2p present.singular present 1p","Noun.Verb",294,427,-2341.78801228,46,2,717,7.17,712,13.9608,371,0.0442,619828,29867,2243,18,"1"
10,"W",37,"M",18572,41737,"kindly",2,"W",1,1,443,639,11,1256648982,30875,1372,1372,72,72,443,2,1.9,6,2,"complex.conversion","positive","Adjective.Adverb",405,407,-3103.46570449,4,2,1285,12.85,453,8.8824,384,0.0458,571457,38417,5778,11,"1"
10,"W",38,"M",19031,42595,"listened",2,"W",1,1,455,801,11,1256657293,796875,1831,331,31,31,455,1,2.1,8,2,"may_include_root","past participle.plural past.singular 2p past.singular past 1p.singular past 3p","Verb",700,3175,-4990.55890608,55,1,2352,23.52,736,14.4314,634,0.0756,848584,65882,13202,12,"1"
10,"W",38,"M",18839,39381,"grinning",2,"W",1,1,487,500,10,1256656975,671875,1639,139,339,39,487,1,1.9,8,2,"monomorphemic","present participle","Verb",178,479,-1330.73037446,11,1,676,6.76,69,1.3529,64,0.0076,762421,74738,21439,7,"1"
10,"W",38,"M",18735,54023,"taxed",2,"W",1,1,428,640,248,1256656788,921875,1535,35,235,35,428,4,1.7,5,1,"conversion","past participle.plural past.singular 2p past.singular past 1p.singular past 3p","Verb",60,98,-215.48456404,55,1,575,5.75,10,0.1961,10,0.0012,592521,28068,7485,20,"1"
10,"W",38,"M",18938,35649,"doses",2,"W",1,1,365,607,10,1256657141,389875,1738,238,438,38,365,13,1.1,5,2,"conversion.monomorphemic","plural.singular present 3p","Noun.Verb",77,208,-482.560358816,13,2,682,6.82,84,1.6471,77,0.0092,666502,56227,10079,4,"1"
10,"W",39,"M",19267,29585,"attached",2,"W",1,1,661,399,253,1256657701,139875,2067,567,267,67,661,2,2.4,8,2,"monomorphemic","past participle.plural past.singular 2p past.singular past 1p.singular past 3p","Verb",675,878,-4776.91317153,55,1,3939,39.39,607,11.902,529,0.0631,753549,49710,9455,1,"1"
10,"W",4,"GC4",1956,31519,"buckling",2,"W",1,1,959,626,11,1255965176,640500,1756,256,456,56,959,2,1.85,8,2,"conversion","present participle","Verb",15,75,-58.937895627,11,1,64,0.64,17,0.3333,14,0.0017,627459,56953,20799,2,"1"
10,"W",4,"GC4",2184,47503,"quailed",2,"W",1,1,NA,702,11,1255965683,781500,1984,484,184,84,2822,0,2,7,1,"monomorphemic","past participle.plural past.singular 2p past.singular past 1p.singular past 3p","Verb",5,9,-0.756269380625,55,1,39,0.39,0,0,0,0,669766,34362,9181,17,"1"
10,"W",4,"GC4",1874,30833,"boaster",2,"W",1,1,821,500,10,1255964997,265500,1674,174,374,74,821,6,1.6,7,2,"complex","singular","Noun",3,4,-5.52642908396,2,1,3,0.03,2,0.0392,2,2e-04,751174,51206,10369,2,"1"
10,"W",41,"GC4",20387,31825,"buys",2,"W",1,1,484,732,10,1256728121,687000,687,687,387,87,484,8,1.45,4,1,"conversion.monomorphemic","plural.singular present 3p","Noun.Verb",99,4598,-632.249719474,13,2,724,7.24,345,6.7647,315,0.0376,481811,34019,1134,2,"1"
10,"W",41,"GC4",20675,52861,"stirs",2,"W",1,1,430,392,10,1256728628,406000,975,975,175,75,430,2,1.8,5,1,"conversion.monomorphemic","plural.singular present 3p","Noun.Verb",22,773,-92.5431985862,13,2,102,1.02,34,0.6667,30,0.0036,669518,62491,6369,19,"1"
10,"W",41,"GC4",20363,40399,"hippies",2,"W",1,0,482,464,11,1256728083,218000,663,663,363,63,482,0,1.9,7,2,"complex","plural","Noun",78,150,-490.359198569,2,1,172,1.72,62,1.2157,48,0.0057,710987,56619,11486,8,"1"
10,"W",41,"GC4",20521,37933,"fortress",2,"W",1,1,463,409,179,1256728348,390000,821,821,21,21,463,0,2.75,8,2,"may_include_root","singular","Noun",107,120,-721.412747401,2,1,498,4.98,141,2.7647,106,0.0126,814551,73540,9615,6,"1"
10,"W",43,"GC1",21673,36905,"fashions",2,"W",1,1,492,840,171,1256733664,797500,1973,973,173,73,492,0,2.55,8,2,"conversion.obscure","plural.singular present 3p","Noun.Verb",215,1292,-1665.86804954,13,2,407,4.07,31,0.6078,27,0.0032,759832,60523,9825,6,"1"
10,"W",43,"GC1",21374,37377,"flapping",2,"W",1,1,384,410,147,1256733165,125500,1674,674,374,74,384,4,1.75,8,2,"monomorphemic","present participle","Verb",102,193,-680.666173124,11,1,300,3,77,1.5098,64,0.0076,665495,54823,20325,6,"1"
10,"W",44,"GC1",22112,35659,"dotting",2,"W",1,0,391,734,11,1256734853,828500,2412,1412,112,12,391,3,1.8,7,2,"conversion","present participle","Verb",7,113,-20.1843413509,11,1,18,0.18,5,0.098,5,6e-04,698851,61123,21687,4,"1"
10,"W",44,"GC1",22058,43581,"midges",2,"W",1,1,552,653,11,1256734759,500500,2358,1358,58,58,552,2,1.8,6,2,"monomorphemic","plural","Noun",3,10,-5.52642908396,2,1,67,0.67,0,0,0,0,654202,53930,9746,13,"1"
10,"W",45,"GC1",22617,51399,"slurps",2,"W",1,1,757,482,11,1256735964,203500,2917,1917,117,17,757,1,1.85,6,1,"monomorphemic","singular present 3p","Verb",0,16,0,11,1,3,0.03,3,0.0588,3,4e-04,642497,44549,1385,19,"1"
10,"W",46,"GC1",22799,50425,"shellac",1,"N",0,0,NA,524,10,1256736343,500,3099,2099,299,99,412,0,2.6,7,2,"conversion.monomorphemic","infinitive.plural present.singular.singular 2p present.singular present 1p","Noun.Verb",2,3,-0.75194505929,45,2,36,0.36,5,0.098,5,6e-04,702219,35449,3482,19,"1"
10,"W",46,"GC1",22950,33329,"coley",1,"N",0,1,NA,631,150,1256736598,515500,3250,2250,450,50,452,1,1.9,5,2,"monomorphemic","plural.singular","Noun",2,2,-0.804820237218,6,1,46,0.46,0,0,0,0,581978,32364,4544,3,"1"
10,"W",47,"GC1",23663,47745,"rainbows",2,"W",1,1,516,649,143,1256737872,125500,3963,2963,163,63,516,0,3.05,8,2,"complex","plural","Noun",20,121,-86.713149482,2,1,89,0.89,41,0.8039,32,0.0038,739233,65610,2676,18,"1"
10,"W",47,"GC1",23314,38953,"glutted",2,"W",1,1,505,436,158,1256737288,390500,3614,2614,314,14,505,0,1.95,7,2,"monomorphemic","past participle.plural past.singular 2p past.singular past 1p.singular past 3p","Verb",5,10,-0.756269380625,55,1,13,0.13,1,0.0196,1,1e-04,680056,39384,10096,7,"1"
10,"W",47,"GC1",23477,32707,"chose",2,"W",1,0,650,487,10,1256737558,797500,3777,2777,477,77,650,6,1.55,5,1,"monomorphemic","plural past.singular 2p past.singular past 1p.singular past 3p","Verb",608,3211,-4406.79672968,44,1,2850,28.5,943,18.4902,773,0.0922,617005,30841,2598,3,"1"
10,"W",47,"GC1",23655,37689,"folded",2,"W",1,1,423,418,11,1256737859,328500,3955,2955,155,55,423,2,1.9,6,2,"monomorphemic","past participle.plural past.singular 2p past.singular past 1p.singular past 3p","Verb",425,685,-2724.08245141,55,1,1295,12.95,140,2.7451,114,0.0136,615562,34327,8876,6,"1"
10,"W",48,"M",23830,31057,"bottom",2,"W",1,0,410,438,11,1256821591,811750,130,130,330,30,410,0,2.45,6,2,"monomorphemic","singular","Noun",1467,1524,-15430.8723274,2,1,7549,75.49,2329,45.6667,1654,0.1972,609418,20062,1872,2,"1"
10,"W",48,"M",23704,51309,"slippy",2,"W",1,1,649,470,11,1256821337,155750,4,4,204,4,649,1,1.95,6,2,"complex","positive","Adjective",0,0,0,1,1,45,0.45,5,0.098,5,6e-04,591903,27977,1241,19,"1"
10,"W",49,"M",24550,53129,"strip",2,"W",1,1,504,969,10,1256822923,499750,850,850,50,50,504,4,1.6,5,1,"conversion.monomorphemic","infinitive.plural present.singular.singular 2p present.singular present 1p","Noun.Verb",382,795,-2899.57824446,46,2,1964,19.64,610,11.9608,480,0.0572,625937,33467,4160,19,"1"
10,"W",5,"GC4",2417,52225,"spluttered",2,"W",1,1,619,556,203,1255966318,890500,2217,717,417,17,619,1,2.35,10,2,"conversion","past participle.plural past.singular 2p past.singular past 1p.singular past 3p","Verb",20,41,-40.6899769181,55,1,136,1.36,1,0.0196,1,1e-04,890244,74105,14169,19,"1"
10,"W",50,"GC1",25027,50165,"servant",2,"W",1,1,580,882,146,1257167293,546375,327,327,27,27,580,0,2.25,7,2,"complex","singular","Noun",439,1331,-3853.5990889,2,1,1780,17.8,594,11.6471,381,0.0454,746908,52189,4514,19,"1"
10,"W",51,"GC1",25260,51653,"snoot",2,"W",1,0,708,1049,146,1257167916,406375,560,560,260,60,708,7,1.45,5,1,"monomorphemic","singular","Noun",0,0,0,2,1,7,0.07,10,0.1961,10,0.0012,644336,24581,1093,19,"1"
10,"W",51,"GC1",25518,56219,"waif",1,"N",0,1,NA,634,154,1257168377,796375,818,818,18,18,631,3,1.8,4,1,"monomorphemic","singular","Noun",13,18,-48.4733656907,2,1,35,0.35,16,0.3137,15,0.0018,504641,9155,900,23,"1"
10,"W",51,"GC1",25599,41355,"jean",2,"W",1,1,660,565,11,1257168509,874375,899,899,99,99,660,5,1.7,4,1,"monomorphemic","singular","Noun",320,320,-2663.04740977,1,1,3063,30.63,22,0.4314,15,0.0018,562182,19532,1176,10,"1"
10,"W",52,"GC1",26044,39365,"grimness",2,"W",1,1,801,529,150,1257251204,437125,344,344,44,44,801,1,2.35,8,2,"complex","singular","Noun",6,6,-16.087588972,1,1,33,0.33,0,0,0,0,802674,64615,7594,7,"1"
10,"W",52,"GC1",25797,34323,"croutons",2,"W",1,0,755,1081,11,1257250789,422125,97,97,297,97,755,0,2.75,8,2,"undetermined","plural","Noun",10,10,-33.6530228633,2,1,13,0.13,5,0.098,5,6e-04,758639,71440,9401,3,"1"
10,"W",52,"GC1",26116,47971,"realize",2,"W",1,1,461,476,11,1257251324,312125,416,416,116,16,461,0,2.25,7,2,"complex","infinitive.plural present.singular 2p present.singular present 1p","Verb",1388,3628,-11713.0714865,44,1,2240,22.4,4009,78.6078,2596,0.3095,754355,42664,6615,18,"1"
10,"W",53,"GC1",26244,30377,"bevel",1,"N",0,1,NA,631,11,1257251609,234125,544,544,244,44,644,3,1.8,5,2,"conversion.monomorphemic","infinitive.plural present.singular.singular 2p present.singular present 1p","Noun.Verb",3,3,-3.63705059305,46,2,34,0.34,0,0,0,0,596608,19266,2081,2,"1"
10,"W",53,"GC1",26442,35841,"dressy",2,"W",1,0,687,492,158,1257251942,922125,742,742,442,42,687,0,1.95,6,2,"complex","positive","Adjective",6,7,-16.087588972,3,1,19,0.19,32,0.6275,24,0.0029,680505,43057,5303,4,"1"
10,"W",53,"GC1",26564,46709,"posses",2,"W",1,0,739,615,11,1257252145,953125,864,864,64,64,739,12,1.2,6,2,"monomorphemic","plural","Noun",0,12,0,2,1,16,0.16,8,0.1569,8,0.001,727554,63589,11579,16,"1"
